BioWare Version 5.3.0.7 Export
Device:	4827095 9260AA6
Samples (#):	4000
Rate (Hz):	1000.000000
Contact period start (sample #):	0
Contact period end (sample #):	3999
Contact period start time (s):	0.000000
Contact period end time (s):	3.999000
First sample time (s):	0.000000
Normalized force (N):	2.549780
Normalized length (m):	1.000000
File Information
Date	May 25, 2017  16:00:53
Name	
ID	
Classification	
Description	
abs time (s)	Fz
	N
0.000000	948.922255
0.001000	948.119658
0.002000	947.959205
0.003000	948.284799
0.004000	947.324929
0.005000	948.755938
0.006000	948.280111
0.007000	948.282613
0.008000	947.165984
0.009000	947.475841
0.010000	947.638299
0.011000	947.799083
0.012000	947.480860
0.013000	949.546145
0.014000	947.163135
0.015000	947.957698
0.016000	947.800591
0.017000	947.638630
0.018000	947.319744
0.019000	947.958360
0.020000	946.845243
0.021000	947.327431
0.022000	947.638962
0.023000	947.474831
0.024000	947.322743
0.025000	948.271896
0.026000	946.360703
0.027000	947.003345
0.028000	948.911190
0.029000	947.317724
0.030000	947.796069
0.031000	947.152915
0.032000	947.795556
0.033000	948.426319
0.034000	949.386354
0.035000	947.152583
0.036000	948.267705
0.037000	947.795556
0.038000	948.748054
0.039000	948.106920
0.040000	947.474649
0.041000	947.474649
0.042000	948.910180
0.043000	947.949979
0.044000	948.267539
0.045000	947.789526
0.046000	948.424978
0.047000	948.108593
0.048000	948.742025
0.049000	947.784341
0.050000	947.310684
0.051000	946.992959
0.052000	947.307670
0.053000	947.309177
0.054000	946.835520
0.055000	948.104071
0.056000	947.312689
0.057000	947.155085
0.058000	947.150728
0.059000	947.467957
0.060000	947.308001
0.061000	946.994300
0.062000	947.794545
0.063000	946.991451
0.064000	947.466781
0.065000	946.514614
0.066000	947.634937
0.067000	946.673726
0.068000	946.517463
0.069000	945.881514
0.070000	947.471469
0.071000	947.783331
0.072000	946.673560
0.073000	946.991120
0.074000	944.285033
0.075000	945.405009
0.076000	946.517297
0.077000	945.407195
0.078000	946.679921
0.079000	945.402673
0.080000	945.408355
0.081000	944.606271
0.082000	944.767056
0.083000	944.768563
0.084000	945.089635
0.085000	944.610793
0.086000	943.180116
0.087000	943.492988
0.088000	943.015985
0.089000	942.694416
0.090000	943.488300
0.091000	941.424192
0.092000	942.061814
0.093000	943.973171
0.094000	942.861561
0.095000	942.222267
0.096000	943.023853
0.097000	941.263573
0.098000	941.423695
0.099000	939.356571
0.100000	939.194280
0.101000	940.631815
0.102000	939.040187
0.103000	938.881407
0.104000	939.044378
0.105000	937.923392
0.106000	938.402566
0.107000	938.565189
0.108000	939.042705
0.109000	937.606511
0.110000	937.607008
0.111000	937.444551
0.112000	936.649491
0.113000	937.606511
0.114000	937.443888
0.115000	936.013210
0.116000	937.767296
0.117000	936.490545
0.118000	936.173829
0.119000	936.812793
0.120000	937.452088
0.121000	936.336287
0.122000	936.814300
0.123000	936.173829
0.124000	935.702856
0.125000	935.860294
0.126000	935.537218
0.127000	936.974753
0.128000	935.862133
0.129000	937.612375
0.130000	935.697837
0.131000	935.861802
0.132000	935.063561
0.133000	935.385296
0.134000	935.385975
0.135000	935.704198
0.136000	935.541740
0.137000	935.224511
0.138000	933.632552
0.139000	934.908127
0.140000	934.911308
0.141000	936.020747
0.142000	934.427447
0.143000	935.866821
0.144000	936.020416
0.145000	935.857445
0.146000	936.021079
0.147000	937.297995
0.148000	935.702856
0.149000	934.907630
0.150000	935.702524
0.151000	935.543910
0.152000	936.338639
0.153000	936.178020
0.154000	936.018743
0.155000	936.176513
0.156000	935.064903
0.157000	935.861636
0.158000	936.817149
0.159000	936.818988
0.160000	936.977768
0.161000	936.184381
0.162000	938.087373
0.163000	937.936462
0.164000	936.817315
0.165000	937.141567
0.166000	936.176181
0.167000	938.572244
0.168000	938.095407
0.169000	937.939311
0.170000	937.934291
0.171000	936.985470
0.172000	937.621585
0.173000	936.660887
0.174000	936.660887
0.175000	937.618239
0.176000	938.412967
0.177000	936.502951
0.178000	938.419162
0.179000	938.419494
0.180000	938.737385
0.181000	938.255363
0.182000	937.939145
0.183000	937.942657
0.184000	938.898004
0.185000	938.739059
0.186000	938.576601
0.187000	938.577611
0.188000	937.778195
0.189000	939.058457
0.190000	938.584469
0.191000	938.897507
0.192000	939.222422
0.193000	939.536802
0.194000	940.487461
0.195000	939.062814
0.196000	939.533456
0.197000	938.577942
0.198000	940.492149
0.199000	939.852689
0.200000	939.693412
0.201000	941.128264
0.202000	938.897341
0.203000	940.972333
0.204000	939.856201
0.205000	940.810207
0.206000	941.294912
0.207000	939.698762
0.208000	941.447331
0.209000	942.243733
0.210000	942.088796
0.211000	941.767061
0.212000	941.925676
0.213000	942.248421
0.214000	942.567985
0.215000	943.204100
0.216000	944.159778
0.217000	943.362880
0.218000	942.879681
0.219000	942.408874
0.220000	944.485704
0.221000	942.882862
0.222000	943.840214
0.223000	942.411210
0.224000	944.326758
0.225000	946.400242
0.226000	943.206949
0.227000	944.005023
0.228000	944.324754
0.229000	944.163803
0.230000	944.008535
0.231000	944.963386
0.232000	944.324588
0.233000	944.325085
0.234000	945.124502
0.235000	944.326427
0.236000	944.800083
0.237000	944.960868
0.238000	945.760119
0.239000	945.604188
0.240000	944.008038
0.241000	944.647499
0.242000	945.760285
0.243000	945.607700
0.244000	944.492744
0.245000	945.597993
0.246000	946.239971
0.247000	945.446086
0.248000	944.487724
0.249000	944.969581
0.250000	945.763465
0.251000	945.611046
0.252000	945.608876
0.253000	946.402097
0.254000	944.968239
0.255000	945.927099
0.256000	946.089225
0.257000	945.293502
0.258000	946.244493
0.259000	945.606871
0.260000	945.444745
0.261000	947.198664
0.262000	946.567735
0.263000	945.138068
0.264000	946.723003
0.265000	944.974269
0.266000	945.772509
0.267000	946.247839
0.268000	945.454286
0.269000	946.247673
0.270000	945.611227
0.271000	945.772012
0.272000	944.980298
0.273000	946.734052
0.274000	946.737232
0.275000	945.935977
0.276000	945.614574
0.277000	947.050270
0.278000	945.929616
0.279000	947.370166
0.280000	946.250522
0.281000	946.408292
0.282000	945.778207
0.283000	946.099776
0.284000	945.462155
0.285000	946.574609
0.286000	945.611062
0.287000	945.620769
0.288000	946.097275
0.289000	946.415663
0.290000	946.258225
0.291000	945.299034
0.292000	944.505647
0.293000	944.509325
0.294000	944.982981
0.295000	946.100621
0.296000	944.986162
0.297000	945.308741
0.298000	946.102625
0.299000	944.822363
0.300000	946.099445
0.301000	945.464672
0.302000	945.462668
0.303000	945.143435
0.304000	945.620106
0.305000	945.469692
0.306000	946.103801
0.307000	944.833080
0.308000	944.833246
0.309000	944.508993
0.310000	944.987669
0.311000	944.990187
0.312000	945.629813
0.313000	946.581980
0.314000	945.462999
0.315000	944.990684
0.316000	945.469360
0.317000	945.472043
0.318000	945.146118
0.319000	946.423034
0.320000	946.265596
0.321000	946.109665
0.322000	945.948036
0.323000	945.787251
0.324000	947.061998
0.325000	947.380221
0.326000	945.630823
0.327000	945.630823
0.328000	944.034176
0.329000	944.830412
0.330000	946.271626
0.331000	945.627311
0.332000	946.584829
0.333000	946.266772
0.334000	945.950554
0.335000	946.109334
0.336000	946.747287
0.337000	947.540674
0.338000	945.153820
0.339000	946.753482
0.340000	945.471712
0.341000	945.795964
0.342000	945.155162
0.343000	946.110841
0.344000	945.789769
0.345000	946.429743
0.346000	946.274806
0.347000	946.751146
0.348000	945.792452
0.349000	946.106998
0.350000	947.221954
0.351000	945.634682
0.352000	947.861248
0.353000	946.112514
0.354000	947.065525
0.355000	945.314108
0.356000	945.477907
0.357000	946.427738
0.358000	945.635014
0.359000	948.340769
0.360000	944.995719
0.361000	946.429908
0.362000	945.313611
0.363000	946.270465
0.364000	946.906911
0.365000	947.227486
0.366000	945.630160
0.367000	947.224637
0.368000	946.270465
0.369000	946.743625
0.370000	945.155841
0.371000	945.790448
0.372000	946.429743
0.373000	946.906414
0.374000	945.629995
0.375000	946.111685
0.376000	946.424889
0.377000	945.309933
0.378000	944.988861
0.379000	945.631502
0.380000	945.949725
0.381000	945.310430
0.382000	946.266109
0.383000	944.827911
0.384000	945.631005
0.385000	944.195640
0.386000	945.785926
0.387000	944.993383
0.388000	945.631668
0.389000	945.629663
0.390000	945.788609
0.391000	945.146134
0.392000	945.625307
0.393000	945.467703
0.394000	945.305576
0.395000	945.629995
0.396000	945.307747
0.397000	943.228912
0.398000	945.625141
0.399000	944.984173
0.400000	945.460497
0.401000	945.620785
0.402000	945.301220
0.403000	944.824383
0.404000	943.555666
0.405000	944.988348
0.406000	943.712773
0.407000	945.140933
0.408000	943.546969
0.409000	943.545959
0.410000	943.865689
0.411000	943.383833
0.412000	943.541768
0.413000	943.706909
0.414000	943.704905
0.415000	942.430158
0.416000	943.550134
0.417000	943.220199
0.418000	944.343189
0.419000	943.544783
0.420000	943.697699
0.421000	943.699538
0.422000	943.699704
0.423000	943.858484
0.424000	944.021273
0.425000	944.494432
0.426000	943.060243
0.427000	944.324106
0.428000	943.689997
0.429000	944.009230
0.430000	944.491749
0.431000	945.762305
0.432000	944.486896
0.433000	943.530704
0.434000	945.440901
0.435000	945.280283
0.436000	946.874246
0.437000	944.964396
0.438000	945.756110
0.439000	945.753592
0.440000	944.642827
0.441000	945.751919
0.442000	946.549994
0.443000	945.756607
0.444000	945.586115
0.445000	945.589793
0.446000	946.544974
0.447000	947.029001
0.448000	946.229088
0.449000	947.499478
0.450000	946.701237
0.451000	947.022972
0.452000	947.176898
0.453000	947.655574
0.454000	948.296542
0.455000	949.568937
0.456000	947.182083
0.457000	947.812168
0.458000	948.609067
0.459000	949.880964
0.460000	949.406645
0.461000	950.044764
0.462000	950.357802
0.463000	949.561400
0.464000	949.404127
0.465000	949.246855
0.466000	948.441922
0.467000	949.399439
0.468000	949.403796
0.469000	949.233967
0.470000	950.520259
0.471000	948.760144
0.472000	950.198856
0.473000	948.599691
0.474000	948.761983
0.475000	949.871589
0.476000	950.991911
0.477000	949.558551
0.478000	949.715658
0.479000	948.599360
0.480000	949.081382
0.481000	949.553531
0.482000	950.358464
0.483000	949.880467
0.484000	949.084728
0.485000	949.721853
0.486000	948.602375
0.487000	948.924954
0.488000	947.490599
0.489000	948.611916
0.490000	947.643350
0.491000	947.970782
0.492000	950.044432
0.493000	948.766008
0.494000	948.129894
0.495000	947.975802
0.496000	947.654233
0.497000	948.449956
0.498000	948.615097
0.499000	947.974460
0.500000	947.818198
0.501000	946.225063
0.502000	946.705578
0.503000	947.018781
0.504000	947.818529
0.505000	947.023303
0.506000	948.460010
0.507000	947.983836
0.508000	946.870221
0.509000	948.301562
0.510000	948.147967
0.511000	947.344209
0.512000	948.307757
0.513000	947.033855
0.514000	947.987861
0.515000	947.825735
0.516000	948.783087
0.517000	948.307260
0.518000	947.034518
0.519000	947.828915
0.520000	948.627156
0.521000	949.743619
0.522000	948.630336
0.523000	947.670135
0.524000	947.834266
0.525000	949.267792
0.526000	947.518047
0.527000	947.673315
0.528000	948.948062
0.529000	946.879431
0.530000	948.153002
0.531000	947.202011
0.532000	946.557862
0.533000	947.363127
0.534000	947.364965
0.535000	946.248336
0.536000	946.410131
0.537000	945.769826
0.538000	947.205357
0.539000	946.095420
0.540000	945.767656
0.541000	945.932118
0.542000	945.136726
0.543000	944.970922
0.544000	945.140238
0.545000	944.659558
0.546000	944.660734
0.547000	945.144263
0.548000	943.540079
0.549000	943.071111
0.550000	943.709743
0.551000	943.225203
0.552000	942.903634
0.553000	941.794691
0.554000	942.274377
0.555000	942.432147
0.556000	941.794194
0.557000	941.953637
0.558000	941.153392
0.559000	942.114256
0.560000	942.269855
0.561000	942.115597
0.562000	942.745185
0.563000	940.838349
0.564000	942.590927
0.565000	942.273202
0.566000	941.155562
0.567000	942.111075
0.568000	943.389499
0.569000	940.040275
0.570000	940.368039
0.571000	942.271197
0.572000	943.070945
0.573000	941.156738
0.574000	940.838681
0.575000	942.435328
0.576000	941.315352
0.577000	940.359160
0.578000	940.991266
0.579000	941.793184
0.580000	942.909150
0.581000	941.961837
0.582000	943.387660
0.583000	941.957993
0.584000	941.951798
0.585000	943.072949
0.586000	942.110412
0.587000	941.794526
0.588000	941.635083
0.589000	942.754395
0.590000	943.387826
0.591000	942.591093
0.592000	942.594108
0.593000	940.999134
0.594000	941.797706
0.595000	943.707391
0.596000	940.995622
0.597000	941.633741
0.598000	942.274543
0.599000	943.071442
0.600000	941.951798
0.601000	941.798882
0.602000	942.755058
0.603000	943.225203
0.604000	941.637253
0.605000	941.794360
0.606000	942.753219
0.607000	942.115763
0.608000	942.914004
0.609000	941.319030
0.610000	942.276382
0.611000	941.954647
0.612000	943.230719
0.613000	942.111920
0.614000	943.228549
0.615000	943.549787
0.616000	942.908984
0.617000	942.431982
0.618000	944.188916
0.619000	943.230388
0.620000	943.395695
0.621000	943.549455
0.622000	943.872697
0.623000	943.233734
0.624000	943.710571
0.625000	944.346520
0.626000	944.184394
0.627000	944.667758
0.628000	944.189247
0.629000	945.465667
0.630000	945.141746
0.631000	945.146931
0.632000	945.784387
0.633000	945.780709
0.634000	945.782548
0.635000	945.623768
0.636000	945.787402
0.637000	946.422008
0.638000	945.152960
0.639000	944.354885
0.640000	946.581286
0.641000	947.055787
0.642000	947.059796
0.643000	946.582296
0.644000	946.263229
0.645000	946.739568
0.646000	947.064152
0.647000	945.792255
0.648000	946.108805
0.649000	947.704955
0.650000	947.546506
0.651000	947.544501
0.652000	947.223098
0.653000	946.433057
0.654000	946.269424
0.655000	946.590661
0.656000	946.269092
0.657000	947.548013
0.658000	946.591837
0.659000	948.501522
0.660000	948.340737
0.661000	948.019997
0.662000	949.302114
0.663000	947.388571
0.664000	947.709642
0.665000	947.548013
0.666000	945.796446
0.667000	947.865408
0.668000	946.758651
0.669000	946.594686
0.670000	947.710818
0.671000	947.230801
0.672000	947.078713
0.673000	947.073197
0.674000	946.760159
0.675000	945.642188
0.676000	945.796611
0.677000	945.480725
0.678000	945.324462
0.679000	946.439253
0.680000	946.443609
0.681000	946.437414
0.682000	945.639007
0.683000	945.004732
0.684000	946.443609
0.685000	946.273117
0.686000	945.478720
0.687000	945.171877
0.688000	944.684670
0.689000	944.371301
0.690000	945.802972
0.691000	945.966440
0.692000	946.441770
0.693000	945.803138
0.694000	946.916934
0.695000	945.165019
0.696000	944.689689
0.697000	944.689358
0.698000	945.168034
0.699000	944.849811
0.700000	945.963426
0.701000	945.488774
0.702000	946.446458
0.703000	943.891615
0.704000	944.530081
0.705000	945.328321
0.706000	944.854333
0.707000	944.058263
0.708000	945.490779
0.709000	944.535100
0.710000	945.015615
0.711000	944.216048
0.712000	945.649228
0.713000	943.421651
0.714000	943.582436
0.715000	943.898986
0.716000	944.857679
0.717000	943.426505
0.718000	943.262374
0.719000	943.581773
0.720000	942.626094
0.721000	944.857679
0.722000	943.107951
0.723000	943.422496
0.724000	941.987975
0.725000	942.149423
0.726000	941.676445
0.727000	943.427847
0.728000	940.711390
0.729000	941.831200
0.730000	941.036984
0.731000	941.033804
0.732000	942.312559
0.733000	942.153282
0.734000	941.517499
0.735000	941.357890
0.736000	941.678118
0.737000	941.039502
0.738000	940.399197
0.739000	941.043676
0.740000	941.040164
0.741000	941.033969
0.742000	939.450210
0.743000	940.882229
0.744000	940.561323
0.745000	940.241758
0.746000	940.725288
0.747000	941.043179
0.748000	941.043013
0.749000	940.879048
0.750000	940.886238
0.751000	940.560991
0.752000	940.884399
0.753000	940.086159
0.754000	939.284240
0.755000	940.085661
0.756000	942.155965
0.757000	941.838405
0.758000	940.565332
0.759000	941.519006
0.760000	941.043179
0.761000	941.200618
0.762000	942.320262
0.763000	942.472349
0.764000	941.997185
0.765000	942.158301
0.766000	942.315242
0.767000	943.271087
0.768000	942.317578
0.769000	942.318588
0.770000	942.795591
0.771000	943.751436
0.772000	942.162823
0.773000	943.910879
0.774000	943.909372
0.775000	943.596002
0.776000	944.385712
0.777000	943.911045
0.778000	946.143143
0.779000	944.868231
0.780000	944.706105
0.781000	943.911045
0.782000	945.345234
0.783000	945.661784
0.784000	945.351595
0.785000	946.463205
0.786000	945.671325
0.787000	945.183108
0.788000	945.981680
0.789000	945.342219
0.790000	945.345565
0.791000	947.581176
0.792000	946.463039
0.793000	947.252567
0.794000	945.827588
0.795000	945.985870
0.796000	947.256592
0.797000	945.822071
0.798000	946.780086
0.799000	946.302586
0.800000	946.465044
0.801000	946.943388
0.802000	947.897062
0.803000	946.299405
0.804000	947.577664
0.805000	948.055164
0.806000	946.940705
0.807000	948.057003
0.808000	946.933349
0.809000	946.304425
0.810000	947.263947
0.811000	946.784608
0.812000	946.791301
0.813000	945.669321
0.814000	945.192981
0.815000	945.989714
0.816000	946.311117
0.817000	947.422064
0.818000	946.624999
0.819000	947.900740
0.820000	947.263781
0.821000	946.784608
0.822000	948.378240
0.823000	949.176481
0.824000	947.423737
0.825000	947.584522
0.826000	948.533674
0.827000	947.425410
0.828000	947.269645
0.829000	947.260269
0.830000	946.307605
0.831000	947.425576
0.832000	947.104338
0.833000	946.946734
0.834000	947.106012
0.835000	947.588200
0.836000	948.377909
0.837000	947.587702
0.838000	946.788452
0.839000	947.576985
0.840000	947.745472
0.841000	947.262274
0.842000	946.151161
0.843000	946.153845
0.844000	946.637871
0.845000	946.306761
0.846000	946.310604
0.847000	946.626491
0.848000	947.584175
0.849000	945.831431
0.850000	945.674656
0.851000	947.265786
0.852000	945.672817
0.853000	946.151161
0.854000	945.354262
0.855000	947.270971
0.856000	947.266117
0.857000	946.307424
0.858000	946.305751
0.859000	945.187780
0.860000	946.465359
0.861000	946.781246
0.862000	946.299555
0.863000	945.829576
0.864000	946.945046
0.865000	946.305072
0.866000	945.672304
0.867000	945.505158
0.868000	945.670631
0.869000	945.503817
0.870000	943.913531
0.871000	946.145961
0.872000	946.459496
0.873000	944.072808
0.874000	945.831581
0.875000	946.777719
0.876000	946.779557
0.877000	945.658572
0.878000	945.982824
0.879000	945.502309
0.880000	944.865351
0.881000	946.458817
0.882000	945.344027
0.883000	946.619104
0.884000	946.776874
0.885000	945.180227
0.886000	947.255384
0.887000	947.419184
0.888000	944.862833
0.889000	946.459148
0.890000	946.141588
0.891000	946.775367
0.892000	947.088405
0.893000	947.252370
0.894000	946.298695
0.895000	945.665927
0.896000	947.252535
0.897000	946.139584
0.898000	947.092745
0.899000	948.687222
0.900000	947.567246
0.901000	945.815331
0.902000	946.294173
0.903000	945.501962
0.904000	945.818346
0.905000	947.887474
0.906000	946.616918
0.907000	946.610226
0.908000	946.294007
0.909000	946.774357
0.910000	947.093921
0.911000	946.138408
0.912000	945.978965
0.913000	946.613738
0.914000	947.411481
0.915000	946.779376
0.916000	945.982477
0.917000	946.450270
0.918000	947.569582
0.919000	946.136569
0.920000	946.292334
0.921000	946.296012
0.922000	946.300534
0.923000	945.184402
0.924000	945.024115
0.925000	946.295681
0.926000	947.253198
0.927000	946.295515
0.928000	945.652874
0.929000	946.774025
0.930000	946.931961
0.931000	947.092580
0.932000	947.885967
0.933000	947.730533
0.934000	946.296012
0.935000	946.134052
0.936000	947.089565
0.937000	946.296178
0.938000	947.091569
0.939000	945.657214
0.940000	946.296178
0.941000	946.609713
0.942000	946.453948
0.943000	946.771673
0.944000	945.975272
0.945000	946.770332
0.946000	947.568738
0.947000	945.490898
0.948000	946.610210
0.949000	945.813145
0.950000	946.767483
0.951000	946.608371
0.952000	945.333293
0.953000	945.970584
0.954000	945.808789
0.955000	945.334967
0.956000	944.689642
0.957000	946.768146
0.958000	946.923911
0.959000	945.971247
0.960000	945.811457
0.961000	945.171830
0.962000	946.927423
0.963000	947.243475
0.964000	946.284616
0.965000	945.650341
0.966000	945.804433
0.967000	946.288294
0.968000	946.930769
0.969000	945.807100
0.970000	947.083354
0.971000	946.765297
0.972000	947.721804
0.973000	947.557673
0.974000	946.759267
0.975000	948.517709
0.976000	947.402240
0.977000	947.876062
0.978000	947.874886
0.979000	947.872219
0.980000	948.992691
0.981000	948.512177
0.982000	948.827053
0.983000	948.673127
0.984000	948.512508
0.985000	948.350050
0.986000	948.507820
0.987000	948.990174
0.988000	948.989677
0.989000	950.258559
0.990000	948.982471
0.991000	948.670941
0.992000	949.619762
0.993000	949.624615
0.994000	949.780546
0.995000	950.098272
0.996000	949.138734
0.997000	950.100442
0.998000	950.741244
0.999000	951.691225
1.000000	952.959776
1.001000	951.851844
1.002000	951.525256
1.003000	951.688045
1.004000	951.688211
1.005000	952.486285
1.006000	951.367470
1.007000	951.839619
1.008000	952.476578
1.009000	952.965293
1.010000	951.849327
1.011000	952.639533
1.012000	952.797816
1.013000	953.113190
1.014000	953.434759
1.015000	952.957922
1.016000	952.796458
1.017000	954.071370
1.018000	954.868104
1.019000	955.825290
1.020000	954.384740
1.021000	954.386579
1.022000	955.183312
1.023000	955.500027
1.024000	955.667836
1.025000	955.186824
1.026000	955.980542
1.027000	957.574506
1.028000	956.933538
1.029000	958.366717
1.030000	958.523658
1.031000	957.409696
1.032000	957.883353
1.033000	958.519633
1.034000	959.634424
1.035000	960.269031
1.036000	958.676061
1.037000	960.110085
1.038000	960.113100
1.039000	959.313352
1.040000	962.337661
1.041000	961.387830
1.042000	961.225207
1.043000	962.023779
1.044000	962.021940
1.045000	961.382977
1.046000	963.610719
1.047000	963.933961
1.048000	963.930780
1.049000	965.358111
1.050000	964.729021
1.051000	965.523749
1.052000	965.202678
1.053000	965.360945
1.054000	967.273313
1.055000	966.957757
1.056000	966.632842
1.057000	967.909924
1.058000	968.864096
1.059000	969.021866
1.060000	967.908417
1.061000	970.621361
1.062000	970.771263
1.063000	970.937083
1.064000	971.411568
1.065000	971.893922
1.066000	971.571011
1.067000	972.370593
1.068000	972.843240
1.069000	973.803441
1.070000	973.479023
1.071000	974.117820
1.072000	973.797080
1.073000	974.437550
1.074000	974.914885
1.075000	976.986696
1.076000	976.995393
1.077000	977.149485
1.078000	976.511863
1.079000	976.829589
1.080000	977.308099
1.081000	977.152168
1.082000	977.788283
1.083000	977.950906
1.084000	977.785765
1.085000	978.746463
1.086000	978.750141
1.087000	977.787272
1.088000	979.220120
1.089000	978.590367
1.090000	977.464693
1.091000	977.311595
1.092000	976.039201
1.093000	977.310767
1.094000	976.354243
1.095000	976.831412
1.096000	977.311595
1.097000	976.197302
1.098000	976.841616
1.099000	975.560012
1.100000	975.722304
1.101000	975.881581
1.102000	974.922556
1.103000	975.562348
1.104000	975.400056
1.105000	975.717782
1.106000	974.441860
1.107000	973.801902
1.108000	973.009509
1.109000	972.373561
1.110000	973.489527
1.111000	972.052489
1.112000	972.218458
1.113000	972.057674
1.114000	970.460183
1.115000	971.255921
1.116000	970.468714
1.117000	970.786108
1.118000	969.509689
1.119000	968.711448
1.120000	968.870725
1.121000	967.757608
1.122000	967.278932
1.123000	966.966060
1.124000	965.683792
1.125000	964.574519
1.126000	964.252271
1.127000	962.976862
1.128000	962.186489
1.129000	962.026533
1.130000	960.588832
1.131000	960.907221
1.132000	959.797118
1.133000	960.590505
1.134000	958.359915
1.135000	956.769960
1.136000	957.720951
1.137000	956.287093
1.138000	955.490360
1.139000	955.021391
1.140000	954.221643
1.141000	952.627498
1.142000	953.107516
1.143000	952.474251
1.144000	951.350747
1.145000	949.919573
1.146000	949.598501
1.147000	949.607545
1.148000	948.959703
1.149000	948.965070
1.150000	947.687309
1.151000	946.412894
1.152000	948.010385
1.153000	945.304299
1.154000	946.427621
1.155000	945.140334
1.156000	945.303123
1.157000	944.668682
1.158000	945.306304
1.159000	944.826617
1.160000	942.757987
1.161000	941.644696
1.162000	942.125708
1.163000	940.848957
1.164000	941.798441
1.165000	941.171702
1.166000	940.526047
1.167000	938.298470
1.168000	938.623220
1.169000	936.385605
1.170000	938.146051
1.171000	936.230171
1.172000	935.441970
1.173000	935.598911
1.174000	933.367823
1.175000	932.568406
1.176000	932.894166
1.177000	930.665248
1.178000	928.593769
1.179000	930.348698
1.180000	929.075128
1.181000	926.369207
1.182000	924.133763
1.183000	924.777580
1.184000	922.866056
1.185000	921.117322
1.186000	919.838566
1.187000	919.049867
1.188000	918.409396
1.189000	916.024216
1.190000	914.590027
1.191000	913.482095
1.192000	911.088051
1.193000	910.774169
1.194000	909.341322
1.195000	905.992428
1.196000	905.034066
1.197000	903.612930
1.198000	900.900664
1.199000	900.425666
1.200000	897.561976
1.201000	895.811236
1.202000	893.739757
1.203000	892.147798
1.204000	890.560858
1.205000	888.015059
1.206000	887.536052
1.207000	884.034061
1.208000	883.235157
1.209000	881.166858
1.210000	879.261364
1.211000	876.232367
1.212000	874.486481
1.213000	872.570270
1.214000	869.070962
1.215000	868.591955
1.216000	866.208448
1.217000	863.982213
1.218000	859.840430
1.219000	858.089194
1.220000	855.699326
1.221000	853.153526
1.222000	852.036897
1.223000	847.425648
1.224000	846.625900
1.225000	843.768571
1.226000	839.940836
1.227000	837.717616
1.228000	834.522815
1.229000	831.345589
1.230000	828.645863
1.231000	826.096552
1.232000	821.796005
1.233000	818.454301
1.234000	816.227570
1.235000	811.455039
1.236000	808.109326
1.237000	803.654174
1.238000	800.949097
1.239000	796.493282
1.240000	793.784859
1.241000	788.848695
1.242000	784.238953
1.243000	780.101029
1.244000	776.917609
1.245000	770.389319
1.246000	764.970967
1.247000	759.882383
1.248000	755.425061
1.249000	750.960548
1.250000	743.326663
1.251000	737.909321
1.252000	732.338715
1.253000	726.447037
1.254000	720.405955
1.255000	713.238371
1.256000	705.592774
1.257000	699.223596
1.258000	691.743985
1.259000	685.221709
1.260000	676.769837
1.261000	670.561791
1.262000	662.757083
1.263000	654.640346
1.264000	645.411669
1.265000	635.692422
1.266000	627.411886
1.267000	617.858798
1.268000	610.218733
1.269000	598.911552
1.270000	590.314301
1.271000	579.964969
1.272000	570.564126
1.273000	561.010865
1.274000	549.548416
1.275000	540.631434
1.276000	529.642476
1.277000	518.334285
1.278000	508.626268
1.279000	498.747081
1.280000	485.849616
1.281000	476.129706
1.282000	465.311753
1.283000	454.318107
1.284000	443.650386
1.285000	432.812008
1.286000	422.144114
1.287000	411.002074
1.288000	401.604246
1.289000	390.292543
1.290000	380.744135
1.291000	369.751831
1.292000	360.041296
1.293000	349.048661
1.294000	339.174161
1.295000	330.889948
1.296000	320.220389
1.297000	311.619957
1.298000	301.107670
1.299000	291.544038
1.300000	285.023949
1.301000	274.828046
1.302000	267.817072
1.303000	259.379097
1.304000	250.934265
1.305000	243.920442
1.306000	237.389817
1.307000	229.267895
1.308000	222.098638
1.309000	216.045016
1.310000	210.144972
1.311000	203.452552
1.312000	197.555524
1.313000	191.339941
1.314000	185.601693
1.315000	180.511104
1.316000	175.563062
1.317000	170.941443
1.318000	165.842987
1.319000	162.492933
1.320000	158.987280
1.321000	154.367666
1.322000	150.541770
1.323000	146.711698
1.324000	144.325855
1.325000	141.292849
1.326000	139.384174
1.327000	134.751506
1.328000	132.368165
1.329000	131.401950
1.330000	127.421796
1.331000	125.670891
1.332000	123.424911
1.333000	123.908606
1.334000	120.883468
1.335000	119.130211
1.336000	119.131056
1.337000	118.172362
1.338000	117.368439
1.339000	116.573379
1.340000	114.017707
1.341000	113.062028
1.342000	112.903248
1.343000	112.422568
1.344000	111.944057
1.345000	110.670321
1.346000	109.554355
1.347000	110.826252
1.348000	108.916236
1.349000	108.432872
1.350000	108.432375
1.351000	107.477027
1.352000	107.635460
1.353000	106.991825
1.354000	105.872844
1.355000	105.394168
1.356000	106.197262
1.357000	107.307364
1.358000	106.033794
1.359000	105.391153
1.360000	107.143565
1.361000	107.940464
1.362000	107.945815
1.363000	108.897137
1.364000	108.743542
1.365000	109.536598
1.366000	111.923617
1.367000	113.511551
1.368000	115.271153
1.369000	115.589376
1.370000	115.588366
1.371000	118.141189
1.372000	122.280952
1.373000	122.278268
1.374000	123.870393
1.375000	127.218442
1.376000	127.864595
1.377000	129.445671
1.378000	131.998825
1.379000	134.708755
1.380000	136.458650
1.381000	138.685050
1.382000	141.551243
1.383000	145.377305
1.384000	147.130877
1.385000	150.160537
1.386000	151.916627
1.387000	155.098540
1.388000	158.291668
1.389000	163.545890
1.390000	165.623218
1.391000	169.613410
1.392000	173.916144
1.393000	177.264027
1.394000	181.563414
1.395000	186.510793
1.396000	191.453318
1.397000	194.329731
1.398000	200.703265
1.399000	206.600293
1.400000	211.072856
1.401000	217.133518
1.402000	223.662486
1.403000	227.970238
1.404000	234.502719
1.405000	241.683869
1.406000	246.941603
1.407000	253.959285
1.408000	260.491268
1.409000	267.190728
1.410000	273.561579
1.411000	281.688701
1.412000	287.269345
1.413000	294.440788
1.414000	300.817337
1.415000	308.153243
1.416000	314.689235
1.417000	324.087244
1.418000	329.978922
1.419000	335.714834
1.420000	343.684005
1.421000	351.816478
1.422000	359.937902
1.423000	367.264432
1.424000	376.505500
1.425000	383.518660
1.426000	391.322359
1.427000	401.038757
1.428000	409.329331
1.429000	417.129525
1.430000	428.926929
1.431000	437.203455
1.432000	446.452390
1.433000	456.639761
1.434000	467.315516
1.435000	478.154904
1.436000	488.342441
1.437000	500.782666
1.438000	510.333758
1.439000	522.599127
1.440000	533.589924
1.441000	545.702551
1.442000	557.492765
1.443000	569.282481
1.444000	580.274288
1.445000	592.062829
1.446000	601.941353
1.447000	614.695114
1.448000	626.955638
1.449000	639.376449
1.450000	650.209973
1.451000	662.004377
1.452000	674.263560
1.453000	686.376850
1.454000	699.277845
1.455000	712.337438
1.456000	724.280567
1.457000	736.384316
1.458000	751.512042
1.459000	764.730747
1.460000	779.221349
1.461000	792.755262
1.462000	809.960316
1.463000	824.767965
1.464000	841.161891
1.465000	858.998868
1.466000	876.352648
1.467000	894.348074
1.468000	912.498753
1.469000	930.648768
1.470000	950.074193
1.471000	969.821866
1.472000	989.085661
1.473000	1009.466599
1.474000	1028.572625
1.475000	1048.315941
1.476000	1068.063946
1.477000	1087.486024
1.478000	1108.820976
1.479000	1125.702440
1.480000	1145.602863
1.481000	1164.393847
1.482000	1184.140509
1.483000	1202.764016
1.484000	1221.556507
1.485000	1240.186027
1.486000	1260.245230
1.487000	1278.234627
1.488000	1298.463311
1.489000	1316.292586
1.490000	1336.195677
1.491000	1354.507653
1.492000	1374.892269
1.493000	1393.669354
1.494000	1413.738596
1.495000	1430.779504
1.496000	1448.609955
1.497000	1466.283133
1.498000	1483.161433
1.499000	1500.835621
1.500000	1517.550769
1.501000	1535.068182
1.502000	1551.472146
1.503000	1566.914071
1.504000	1583.633244
1.505000	1600.357104
1.506000	1615.480806
1.507000	1631.723820
1.508000	1647.647088
1.509000	1663.410084
1.510000	1681.562949
1.511000	1696.851957
1.512000	1712.930493
1.513000	1729.012722
1.514000	1746.375878
1.515000	1761.663047
1.516000	1777.262410
1.517000	1792.877344
1.518000	1809.118353
1.519000	1824.729096
1.520000	1838.414268
1.521000	1854.188645
1.522000	1868.837530
1.523000	1883.489082
1.524000	1898.938377
1.525000	1913.266356
1.526000	1927.916914
1.527000	1942.253092
1.528000	1955.946795
1.529000	1970.600186
1.530000	1983.501000
1.531000	1996.878484
1.532000	2009.455724
1.533000	2022.040997
1.534000	2034.144414
1.535000	2046.414480
1.536000	2058.191143
1.537000	2069.178759
1.538000	2080.329015
1.539000	2090.853526
1.540000	2101.519077
1.541000	2112.820907
1.542000	2122.863562
1.543000	2132.901529
1.544000	2145.476598
1.545000	2154.080707
1.546000	2164.116173
1.547000	2173.039018
1.548000	2184.988509
1.549000	2191.996650
1.550000	2200.919495
1.551000	2209.679385
1.552000	2218.134438
1.553000	2224.184051
1.554000	2231.833839
1.555000	2238.523591
1.556000	2245.534747
1.557000	2251.912306
1.558000	2257.814867
1.559000	2262.910158
1.560000	2266.739401
1.561000	2271.528016
1.562000	2275.993720
1.563000	2278.863274
1.564000	2281.737516
1.565000	2285.413014
1.566000	2289.401715
1.567000	2291.483911
1.568000	2293.875800
1.569000	2297.070783
1.570000	2298.990522
1.571000	2299.956089
1.572000	2300.607775
1.573000	2303.320238
1.574000	2304.602521
1.575000	2303.975964
1.576000	2307.012001
1.577000	2309.094032
1.578000	2309.264042
1.579000	2310.548164
1.580000	2312.310630
1.581000	2312.794507
1.582000	2314.079474
1.583000	2313.773310
1.584000	2314.429864
1.585000	2315.226447
1.586000	2315.875962
1.587000	2314.929675
1.588000	2315.420923
1.589000	2315.590933
1.590000	2316.405092
1.591000	2314.185400
1.592000	2313.560184
1.593000	2313.257714
1.594000	2312.796297
1.595000	2310.579786
1.596000	2309.634177
1.597000	2309.645241
1.598000	2307.274472
1.599000	2308.573005
1.600000	2305.562277
1.601000	2303.182977
1.602000	2303.204593
1.603000	2300.674712
1.604000	2298.616317
1.605000	2295.134948
1.606000	2293.237172
1.607000	2290.235142
1.608000	2288.501000
1.609000	2286.609253
1.610000	2282.485077
1.611000	2278.845094
1.612000	2274.560796
1.613000	2270.915627
1.614000	2265.839782
1.615000	2262.665255
1.616000	2259.025106
1.617000	2254.896242
1.618000	2251.895056
1.619000	2248.565096
1.620000	2246.192156
1.621000	2242.862030
1.622000	2237.940276
1.623000	2235.084635
1.624000	2232.396653
1.625000	2230.347121
1.626000	2227.813065
1.627000	2223.518879
1.628000	2221.942159
1.629000	2221.960263
1.630000	2220.061130
1.631000	2217.366953
1.632000	2214.510136
1.633000	2213.250811
1.634000	2211.665891
1.635000	2210.403386
1.636000	2209.139372
1.637000	2207.393503
1.638000	2206.455912
1.639000	2205.831360
1.640000	2203.452887
1.641000	2203.939448
1.642000	2200.761725
1.643000	2200.937086
1.644000	2199.827330
1.645000	2199.682796
1.646000	2196.986929
1.647000	2197.478177
1.648000	2196.842576
1.649000	2196.221204
1.650000	2193.366904
1.651000	2193.694006
1.652000	2191.317041
1.653000	2190.849595
1.654000	2189.277066
1.655000	2189.441710
1.656000	2186.585904
1.657000	2186.120297
1.658000	2184.060213
1.659000	2181.520957
1.660000	2180.099505
1.661000	2177.561922
1.662000	2177.093466
1.663000	2172.808655
1.664000	2171.380842
1.665000	2169.804967
1.666000	2167.586104
1.667000	2164.256309
1.668000	2163.790039
1.669000	2160.940081
1.670000	2158.079587
1.671000	2154.423701
1.672000	2151.250666
1.673000	2148.559171
1.674000	2145.384463
1.675000	2142.215453
1.676000	2139.841835
1.677000	2138.098980
1.678000	2133.335327
1.679000	2130.479024
1.680000	2126.193550
1.681000	2123.665839
1.682000	2121.283855
1.683000	2117.320795
1.684000	2113.199950
1.685000	2110.025755
1.686000	2106.220133
1.687000	2103.372195
1.688000	2099.562548
1.689000	2095.286450
1.690000	2093.229895
1.691000	2088.785309
1.692000	2084.826424
1.693000	2081.335514
1.694000	2076.423799
1.695000	2073.893752
1.696000	2070.403173
1.697000	2067.399304
1.698000	2063.437072
1.699000	2058.823669
1.700000	2055.342118
1.701000	2051.534823
1.702000	2049.639715
1.703000	2046.634670
1.704000	2042.506137
1.705000	2040.452083
1.706000	2036.648632
1.707000	2033.157208
1.708000	2030.138100
1.709000	2029.364309
1.710000	2024.600325
1.711000	2022.387491
1.712000	2020.170648
1.713000	2019.230042
1.714000	2016.856921
1.715000	2014.801360
1.716000	2012.899725
1.717000	2010.521584
1.718000	2009.263088
1.719000	2007.843641
1.720000	2007.070347
1.721000	2005.970464
1.722000	2005.821407
1.723000	2004.398946
1.724000	2006.004802
1.725000	2006.183178
1.726000	2006.831186
1.727000	2008.269400
1.728000	2009.080197
1.729000	2009.411655
1.730000	2010.386416
1.731000	2012.461921
1.732000	2013.433502
1.733000	2015.669957
1.734000	2017.275979
1.735000	2017.605085
1.736000	2020.008354
1.737000	2022.088365
1.738000	2025.444298
1.739000	2027.687611
1.740000	2030.242785
1.741000	2031.362942
1.742000	2031.524903
1.743000	2035.517116
1.744000	2037.597127
1.745000	2037.604498
1.746000	2039.837772
1.747000	2039.686860
1.748000	2040.485101
1.749000	2042.406679
1.750000	2043.689625
1.751000	2044.650670
1.752000	2044.176019
1.753000	2045.934792
1.754000	2046.262060
1.755000	2046.590503
1.756000	2047.547357
1.757000	2049.466584
1.758000	2049.311331
1.759000	2049.485004
1.760000	2051.237597
1.761000	2050.284933
1.762000	2051.889448
1.763000	2050.462133
1.764000	2053.181604
1.765000	2051.274106
1.766000	2050.163340
1.767000	2049.698546
1.768000	2050.018624
1.769000	2049.388373
1.770000	2048.917400
1.771000	2049.085887
1.772000	2047.015086
1.773000	2045.428478
1.774000	2044.312527
1.775000	2042.727758
1.776000	2040.823440
1.777000	2040.661313
1.778000	2037.644375
1.779000	2036.376669
1.780000	2033.660378
1.781000	2030.326211
1.782000	2027.626154
1.783000	2025.072999
1.784000	2021.734311
1.785000	2018.391447
1.786000	2015.683190
1.787000	2011.063741
1.788000	2007.079396
1.789000	2003.577753
1.790000	1997.684402
1.791000	1993.545302
1.792000	1988.281207
1.793000	1982.705235
1.794000	1975.379866
1.795000	1970.916695
1.796000	1965.821072
1.797000	1957.213766
1.798000	1950.362550
1.799000	1942.384501
1.800000	1934.743079
1.801000	1927.722381
1.802000	1917.363327
1.803000	1908.911786
1.804000	1899.186676
1.805000	1887.708640
1.806000	1877.659277
1.807000	1866.019793
1.808000	1851.024046
1.809000	1838.746775
1.810000	1827.263388
1.811000	1812.754682
1.812000	1797.119142
1.813000	1782.285852
1.814000	1765.546058
1.815000	1747.364206
1.816000	1729.336115
1.817000	1708.922844
1.818000	1687.557737
1.819000	1666.021641
1.820000	1643.056375
1.821000	1619.137601
1.822000	1594.728936
1.823000	1568.099221
1.824000	1541.136392
1.825000	1510.036632
1.826000	1480.844719
1.827000	1447.029332
1.828000	1413.700655
1.829000	1380.675806
1.830000	1346.055320
1.831000	1309.527486
1.832000	1269.180282
1.833000	1230.420696
1.834000	1187.521332
1.835000	1143.337018
1.836000	1095.178744
1.837000	1042.547577
1.838000	991.357789
1.839000	940.797272
1.840000	888.802385
1.841000	833.304678
1.842000	775.576041
1.843000	716.551066
1.844000	662.798897
1.845000	612.396979
1.846000	561.996222
1.847000	506.964627
1.848000	454.499777
1.849000	404.097014
1.850000	358.319067
1.851000	318.112579
1.852000	281.260839
1.853000	245.379007
1.854000	209.160036
1.855000	175.152904
1.856000	141.164857
1.857000	112.603210
1.858000	86.734099
1.859000	63.119016
1.860000	44.767714
1.861000	30.712272
1.862000	19.688179
1.863000	9.608550
1.864000	0.990212
1.865000	-3.311149
1.866000	-5.868644
1.867000	-5.733287
1.868000	-4.313162
1.869000	-2.878294
1.870000	-0.625621
1.871000	-1.264253
1.872000	-0.616608
1.873000	1.787142
1.874000	4.978597
1.875000	6.895471
1.876000	5.301508
1.877000	3.222839
1.878000	1.144004
1.879000	0.179959
1.880000	-0.142273
1.881000	-1.263921
1.882000	-1.903713
1.883000	-1.426213
1.884000	-0.303223
1.885000	0.818425
1.886000	4.008373
1.887000	5.769648
1.888000	3.699842
1.889000	3.381784
1.890000	1.942079
1.891000	0.980039
1.892000	1.935733
1.893000	-0.785245
1.894000	-0.786255
1.895000	-0.142604
1.896000	0.652290
1.897000	0.811733
1.898000	1.295760
1.899000	2.735300
1.900000	3.053523
1.901000	2.573008
1.902000	2.095674
1.903000	2.092493
1.904000	1.774270
1.905000	0.972518
1.906000	1.930035
1.907000	0.337579
1.908000	0.655802
1.909000	1.937075
1.910000	1.455881
1.911000	1.452701
1.912000	2.730115
1.913000	3.213810
1.914000	1.458052
1.915000	1.938235
1.916000	2.410550
1.917000	2.249434
1.918000	1.129624
1.919000	2.404868
1.920000	1.613154
1.921000	1.931377
1.922000	2.731291
1.923000	1.928197
1.924000	0.654460
1.925000	2.255629
1.926000	1.775280
1.927000	2.091996
1.928000	0.814914
1.929000	0.813406
1.930000	0.816587
1.931000	1.932553
1.932000	0.975201
1.933000	0.977703
1.934000	0.657475
1.935000	1.290575
1.936000	1.296604
1.937000	2.247927
1.938000	1.616666
1.939000	1.771934
1.940000	0.977868
1.941000	1.928031
1.942000	1.767080
1.943000	0.811899
1.944000	1.616335
1.945000	0.017502
1.946000	1.931543
1.947000	1.611812
1.948000	0.332891
1.949000	1.773607
1.950000	2.089826
1.951000	1.928197
1.952000	0.969337
1.953000	0.816752
1.954000	0.813572
1.955000	0.977371
1.956000	0.811236
1.957000	0.177126
1.958000	0.500037
1.959000	1.927699
1.960000	1.132805
1.961000	2.088650
1.962000	2.406707
1.963000	1.611481
1.964000	0.658983
1.965000	0.652953
1.966000	0.811567
1.967000	1.925860
1.968000	1.297101
1.969000	2.091499
1.970000	0.330042
1.971000	1.928709
1.972000	1.612988
1.973000	1.133136
1.974000	1.767412
1.975000	2.725940
1.976000	1.450033
1.977000	2.088318
1.978000	1.454208
1.979000	0.021527
1.980000	0.968840
1.981000	1.137493
1.982000	0.969006
1.983000	1.288404
1.984000	2.568502
1.985000	0.970679
1.986000	2.883710
1.987000	0.657475
1.988000	1.767080
1.989000	0.814582
1.990000	1.453877
1.991000	2.565487
1.992000	1.771768
1.993000	1.296770
1.994000	2.250610
1.995000	0.652622
1.996000	0.647271
1.997000	1.449355
1.998000	2.409556
1.999000	0.175950
2.000000	1.924353
2.001000	1.291419
2.002000	1.291916
2.003000	0.650783
2.004000	1.932719
2.005000	1.291916
2.006000	2.568667
2.007000	0.973528
2.008000	1.929372
2.009000	3.525688
2.010000	2.086811
2.011000	0.973362
2.012000	1.607803
2.013000	1.289912
2.014000	2.088815
2.015000	0.814582
2.016000	2.091499
2.017000	1.922514
2.018000	1.924187
2.019000	0.492168
2.020000	1.766749
2.021000	1.930548
2.022000	0.653797
2.023000	1.611481
2.024000	1.132805
2.025000	0.977537
2.026000	2.249103
2.027000	2.722428
2.028000	0.654129
2.029000	1.923856
2.030000	2.083299
2.031000	2.245259
2.032000	1.135820
2.033000	1.290078
2.034000	0.656978
2.035000	0.653963
2.036000	2.245425
2.037000	1.762227
2.038000	2.245757
2.039000	0.811236
2.040000	1.927036
2.041000	2.885051
2.042000	1.932056
2.043000	1.452535
2.044000	0.181814
2.045000	1.612988
2.046000	1.612823
2.047000	1.293258
2.048000	2.245259
2.049000	1.291253
2.050000	1.447350
2.051000	2.884720
2.052000	1.286566
2.053000	2.245425
2.054000	2.085303
2.055000	0.809728
2.056000	1.440326
2.057000	1.129459
2.058000	1.445511
2.059000	1.765242
2.060000	2.086314
2.061000	1.604789
2.062000	0.652124
2.063000	0.807890
2.064000	1.452038
2.065000	0.817100
2.066000	2.402863
2.067000	1.288239
2.068000	0.971855
2.069000	0.332726
2.070000	0.972186
2.071000	2.724598
2.072000	1.611481
2.073000	2.087987
2.074000	1.130635
2.075000	1.132308
2.076000	1.606130
2.077000	1.453711
2.078000	1.292761
2.079000	2.725277
2.080000	2.086314
2.081000	2.243918
2.082000	1.452038
2.083000	2.083465
2.084000	0.650451
2.085000	1.765573
2.086000	1.446853
2.087000	0.491340
2.088000	2.716067
2.089000	-0.144775
2.090000	0.973694
2.091000	0.815758
2.092000	1.609642
2.093000	1.764066
2.094000	1.605799
2.095000	1.924187
2.096000	1.928875
2.097000	0.963489
2.098000	0.809563
2.099000	2.084972
2.100000	2.566497
2.101000	0.652456
2.102000	1.446853
2.103000	0.975035
2.104000	1.130800
2.105000	2.086811
2.106000	1.768256
2.107000	1.768091
2.108000	0.815079
2.109000	0.971855
2.110000	0.968508
2.111000	0.970513
2.112000	1.609808
2.113000	0.489832
2.114000	1.290243
2.115000	1.442662
2.116000	1.286566
2.117000	2.247098
2.118000	1.930880
2.119000	1.289415
2.120000	1.606130
2.121000	1.932056
2.122000	1.448692
2.123000	0.657144
2.124000	1.612657
2.125000	1.449023
2.126000	0.492847
2.127000	1.446853
2.128000	3.360050
2.129000	1.287907
2.130000	1.609145
2.131000	1.611481
2.132000	1.601111
2.133000	1.765076
2.134000	1.129293
2.135000	1.289912
2.136000	1.130800
2.137000	0.973528
2.138000	1.288239
2.139000	0.492847
2.140000	0.648944
2.141000	1.604457
2.142000	2.243420
2.143000	2.084972
2.144000	1.448858
2.145000	1.290078
2.146000	3.197923
2.147000	2.250279
2.148000	1.130469
2.149000	0.491506
2.150000	1.284561
2.151000	2.084806
2.152000	1.131976
2.153000	1.925860
2.154000	1.286400
2.155000	1.286234
2.156000	0.656646
2.157000	1.126113
2.158000	2.085982
2.159000	1.127620
2.160000	0.810739
2.161000	0.648944
2.162000	1.125781
2.163000	1.768422
2.164000	1.605964
2.165000	1.127786
2.166000	1.927202
2.167000	0.011819
2.168000	0.496028
2.169000	1.452204
2.170000	1.294765
2.171000	0.490330
2.172000	0.815758
2.173000	1.769764
2.174000	0.969519
2.175000	0.170268
2.176000	0.971689
2.177000	1.612491
2.178000	1.765407
2.179000	0.490843
2.180000	0.811402
2.181000	1.289746
2.182000	-0.460993
2.183000	0.648778
2.184000	1.769929
2.185000	1.294931
2.186000	0.974704
2.187000	0.645266
2.188000	0.653632
2.189000	0.651959
2.190000	2.086148
2.191000	1.293092
2.192000	1.291585
2.193000	0.172107
2.194000	2.240571
2.195000	0.812909
2.196000	1.132308
2.197000	0.808553
2.198000	0.183156
2.199000	0.492847
2.200000	1.766749
2.201000	0.492516
2.202000	0.329048
2.203000	-0.465681
2.204000	1.124274
2.205000	2.246601
2.206000	-0.457315
2.207000	0.809231
2.208000	0.650451
2.209000	0.970182
2.210000	2.085816
2.211000	1.607472
2.212000	0.967167
2.213000	-0.308242
2.214000	1.128962
2.215000	0.653632
2.216000	1.924353
2.217000	2.246932
2.218000	1.288073
2.219000	0.488159
2.220000	1.128796
2.221000	1.446853
2.222000	0.809563
2.223000	0.813075
2.224000	0.809065
2.225000	0.812743
2.226000	1.452204
2.227000	1.763403
2.228000	1.125947
2.229000	1.606462
2.230000	1.290243
2.231000	1.598096
2.232000	1.291088
2.233000	0.811070
2.234000	1.289580
2.235000	1.930714
2.236000	1.127123
2.237000	1.289746
2.238000	0.329214
2.239000	1.765739
2.240000	1.283385
2.241000	1.611150
2.242000	0.650120
2.243000	1.123611
2.244000	1.924187
2.245000	1.451872
2.246000	0.334399
2.247000	2.243586
2.248000	0.491174
2.249000	2.238070
2.250000	1.766583
2.251000	0.651959
2.252000	0.971523
2.253000	1.448858
2.254000	1.287907
2.255000	1.288073
2.256000	2.720755
2.257000	1.445511
2.258000	1.610487
2.259000	1.761232
2.260000	1.927036
2.261000	0.178302
2.262000	1.445677
2.263000	1.920841
2.264000	1.766915
2.265000	2.089494
2.266000	0.647105
2.267000	1.447350
2.268000	1.287410
2.269000	0.650120
2.270000	0.809728
2.271000	0.171775
2.272000	2.562985
2.273000	0.645763
2.274000	1.606130
2.275000	0.968011
2.276000	1.445346
2.277000	0.648778
2.278000	1.291253
2.279000	1.445511
2.280000	2.090836
2.281000	1.923359
2.282000	1.126444
2.283000	0.968177
2.284000	2.246932
2.285000	0.487662
2.286000	1.606462
2.287000	1.766915
2.288000	3.194577
2.289000	0.964996
2.290000	0.488657
2.291000	0.493013
2.292000	1.130800
2.293000	0.814251
2.294000	-0.308740
2.295000	1.290591
2.296000	1.922349
2.297000	0.014337
2.298000	1.281546
2.299000	0.970016
2.300000	1.930383
2.301000	1.127123
2.302000	1.925363
2.303000	0.651627
2.304000	0.648944
2.305000	1.766418
2.306000	1.607803
2.307000	1.291253
2.308000	1.283054
2.309000	2.079290
2.310000	0.807392
2.311000	1.286731
2.312000	1.604291
2.313000	-0.146613
2.314000	1.445677
2.315000	0.651959
2.316000	1.125615
2.317000	1.130469
2.318000	1.607803
2.319000	0.330555
2.320000	0.486486
2.321000	0.648281
2.322000	1.120927
2.323000	0.007810
2.324000	2.086148
2.325000	2.089826
2.326000	2.560302
2.327000	1.762906
2.328000	0.646939
2.329000	1.605964
2.330000	-0.146448
2.331000	0.806051
2.332000	1.766749
2.333000	1.766583
2.334000	1.769929
2.335000	2.725443
2.336000	0.493179
2.337000	1.289746
2.338000	1.442331
2.339000	0.811070
2.340000	1.131298
2.341000	2.079455
2.342000	0.332228
2.343000	2.398010
2.344000	2.723770
2.345000	1.614164
2.346000	1.766252
2.347000	4.773514
2.348000	27.191704
2.349000	86.844562
2.350000	200.607485
2.351000	277.754752
2.352000	255.150475
2.353000	236.308738
2.354000	274.138768
2.355000	311.417861
2.356000	289.720286
2.357000	279.946718
2.358000	334.971478
2.359000	428.688340
2.360000	471.547533
2.361000	487.966587
2.362000	549.122525
2.363000	658.756294
2.364000	777.043448
2.365000	888.886230
2.366000	1000.156018
2.367000	1147.379756
2.368000	1262.300828
2.369000	1331.746141
2.370000	1360.179558
2.371000	1363.012799
2.372000	1341.177035
2.373000	1312.339947
2.374000	1301.497707
2.375000	1367.067354
2.376000	1533.217594
2.377000	1742.823807
2.378000	1930.958775
2.379000	2032.364520
2.380000	2024.246607
2.381000	1894.082389
2.382000	1684.364715
2.383000	1475.433073
2.384000	1339.579861
2.385000	1289.777251
2.386000	1280.936966
2.387000	1261.680487
2.388000	1233.061134
2.389000	1224.481877
2.390000	1250.226136
2.391000	1295.438027
2.392000	1340.754589
2.393000	1389.162266
2.394000	1455.893813
2.395000	1532.645601
2.396000	1590.228219
2.397000	1620.036351
2.398000	1626.235400
2.399000	1639.621297
2.400000	1661.922850
2.401000	1688.063518
2.402000	1705.140303
2.403000	1720.453113
2.404000	1740.255398
2.405000	1770.117598
2.406000	1806.192548
2.407000	1839.418881
2.408000	1870.101419
2.409000	1906.212032
2.410000	1951.739241
2.411000	1997.265952
2.412000	2037.040501
2.413000	2066.910901
2.414000	2090.868354
2.415000	2115.287405
2.416000	2136.985311
2.417000	2153.562979
2.418000	2167.586980
2.419000	2179.077903
2.420000	2195.515211
2.421000	2215.801523
2.422000	2243.434806
2.423000	2282.418833
2.424000	2372.166808
2.425000	2558.524473
2.426000	2776.971750
2.427000	2917.045597
2.428000	3055.117848
2.429000	3308.885760
2.430000	3618.004565
2.431000	3840.198731
2.432000	3929.118596
2.433000	3972.322570
2.434000	4040.431397
2.435000	4108.855883
2.436000	4110.183649
2.437000	4048.080320
2.438000	3988.714172
2.439000	3999.873662
2.440000	4048.887733
2.441000	4084.496975
2.442000	4085.721986
2.443000	4094.494228
2.444000	4135.473933
2.445000	4191.511607
2.446000	4220.604042
2.447000	4237.027588
2.448000	4232.632368
2.449000	4215.137852
2.450000	4181.300912
2.451000	4138.776271
2.452000	4086.535366
2.453000	4017.715317
2.454000	3933.316511
2.455000	3854.193637
2.456000	3786.069066
2.457000	3721.307996
2.458000	3650.968074
2.459000	3580.755537
2.460000	3512.307336
2.461000	3452.934779
2.462000	3394.493135
2.463000	3337.511668
2.464000	3285.306276
2.465000	3233.413938
2.466000	3172.127780
2.467000	3101.736393
2.468000	3026.871102
2.469000	2953.462444
2.470000	2886.742695
2.471000	2820.816333
2.472000	2759.054183
2.473000	2698.879304
2.474000	2647.627271
2.475000	2602.605247
2.476000	2563.787741
2.477000	2529.088910
2.478000	2498.560652
2.479000	2473.437015
2.480000	2447.662356
2.481000	2426.512165
2.482000	2406.459851
2.483000	2386.249934
2.484000	2366.988655
2.485000	2346.448440
2.486000	2325.727347
2.487000	2308.520123
2.488000	2291.790233
2.489000	2273.293686
2.490000	2255.916964
2.491000	2241.560362
2.492000	2227.051174
2.493000	2212.218065
2.494000	2198.018222
2.495000	2184.298397
2.496000	2168.990124
2.497000	2155.745628
2.498000	2142.980140
2.499000	2128.781970
2.500000	2116.811376
2.501000	2105.952723
2.502000	2097.178272
2.503000	2087.438932
2.504000	2078.657955
2.505000	2075.136052
2.506000	2069.222111
2.507000	2065.869706
2.508000	2063.457077
2.509000	2061.221301
2.510000	2059.292533
2.511000	2057.205499
2.512000	2056.552472
2.513000	2054.300296
2.514000	2051.891179
2.515000	2051.234475
2.516000	2050.730355
2.517000	2045.446830
2.518000	2046.382250
2.519000	2042.369115
2.520000	2040.269343
2.521000	2037.847157
2.522000	2033.678920
2.523000	2031.729562
2.524000	2030.107124
2.525000	2027.052170
2.526000	2022.084185
2.527000	2019.337581
2.528000	2014.369430
2.529000	2007.484058
2.530000	2001.393248
2.531000	1995.152190
2.532000	1987.798346
2.533000	1981.559806
2.534000	1970.849200
2.535000	1959.833772
2.536000	1950.880266
2.537000	1937.795529
2.538000	1928.531503
2.539000	1914.960222
2.540000	1903.788350
2.541000	1891.656790
2.542000	1878.726311
2.543000	1866.760887
2.544000	1851.755250
2.545000	1838.829625
2.546000	1825.588957
2.547000	1812.340254
2.548000	1799.725994
2.549000	1785.370867
2.550000	1773.720485
2.551000	1761.587749
2.552000	1749.617968
2.553000	1735.097700
2.554000	1724.238700
2.555000	1710.673780
2.556000	1700.772464
2.557000	1687.845331
2.558000	1677.303212
2.559000	1664.208436
2.560000	1652.555040
2.561000	1641.381826
2.562000	1631.310184
2.563000	1618.702118
2.564000	1609.268595
2.565000	1598.731164
2.566000	1590.262696
2.567000	1577.324861
2.568000	1569.338746
2.569000	1558.314108
2.570000	1550.162024
2.571000	1540.252839
2.572000	1531.784718
2.573000	1524.273436
2.574000	1516.594842
2.575000	1509.561573
2.576000	1500.936510
2.577000	1493.575642
2.578000	1487.184351
2.579000	1480.466124
2.580000	1472.319903
2.581000	1467.354105
2.582000	1460.321830
2.583000	1455.205616
2.584000	1448.490238
2.585000	1442.407629
2.586000	1436.164235
2.587000	1430.248273
2.588000	1423.860660
2.589000	1416.982327
2.590000	1411.702812
2.591000	1405.784333
2.592000	1400.028824
2.593000	1394.751329
2.594000	1387.713869
2.595000	1382.759782
2.596000	1376.999917
2.597000	1370.440818
2.598000	1363.731801
2.599000	1359.408809
2.600000	1352.056985
2.601000	1344.858243
2.602000	1338.462099
2.603000	1331.431347
2.604000	1325.999412
2.605000	1320.238553
2.606000	1314.637800
2.607000	1308.400601
2.608000	1302.806043
2.609000	1296.249611
2.610000	1290.971935
2.611000	1283.935998
2.612000	1276.748305
2.613000	1272.738501
2.614000	1266.185762
2.615000	1260.904905
2.616000	1255.626399
2.617000	1248.114620
2.618000	1243.156176
2.619000	1234.365973
2.620000	1229.562963
2.621000	1221.261143
2.622000	1215.342830
2.623000	1210.542835
2.624000	1204.146690
2.625000	1196.472453
2.626000	1188.803084
2.627000	1181.297666
2.628000	1175.216729
2.629000	1168.822092
2.630000	1160.675027
2.631000	1152.532665
2.632000	1145.973218
2.633000	1138.937597
2.634000	1134.939355
2.635000	1129.020710
2.636000	1123.581420
2.637000	1117.031515
2.638000	1107.765650
2.639000	1100.738079
2.640000	1094.658650
2.641000	1087.785833
2.642000	1078.361867
2.643000	1068.781292
2.644000	1061.270356
2.645000	1053.606158
2.646000	1044.343142
2.647000	1035.875186
2.648000	1024.066869
2.649000	1016.400500
2.650000	1007.934383
2.651000	999.956152
2.652000	989.095645
2.653000	981.749851
2.654000	972.495201
2.655000	964.183176
2.656000	956.360545
2.657000	948.535727
2.658000	939.122297
2.659000	931.936956
2.660000	924.428025
2.661000	918.521771
2.662000	909.906250
2.663000	901.133291
2.664000	894.112578
2.665000	885.976743
2.666000	876.241743
2.667000	868.108592
2.668000	860.442388
2.669000	849.917183
2.670000	842.898829
2.671000	833.171698
2.672000	822.961037
2.673000	813.236755
2.674000	804.782366
2.675000	796.491263
2.676000	785.806117
2.677000	778.950711
2.678000	768.264057
2.679000	758.224899
2.680000	749.608549
2.681000	741.004242
2.682000	732.876947
2.683000	722.509858
2.684000	714.863913
2.685000	706.418055
2.686000	698.925706
2.687000	690.638628
2.688000	681.074136
2.689000	674.219906
2.690000	667.368848
2.691000	660.353833
2.692000	654.141580
2.693000	647.442286
2.694000	640.436979
2.695000	635.179908
2.696000	627.690573
2.697000	620.839358
2.698000	613.354198
2.699000	608.098634
2.700000	601.404360
2.701000	595.828056
2.702000	588.825597
2.703000	582.446034
2.704000	577.507517
2.705000	573.846762
2.706000	567.315277
2.707000	560.937718
2.708000	555.682486
2.709000	551.220475
2.710000	546.442578
2.711000	540.712513
2.712000	535.934782
2.713000	531.939901
2.714000	526.852312
2.715000	521.751338
2.716000	517.611575
2.717000	514.423964
2.718000	509.009621
2.719000	503.753710
2.720000	500.722045
2.721000	498.180090
2.722000	494.988801
2.723000	490.532141
2.724000	488.294692
2.725000	484.956003
2.726000	481.763538
2.727000	479.057120
2.728000	475.551285
2.729000	474.118604
2.730000	471.405990
2.731000	469.019800
2.732000	467.578587
2.733000	465.829355
2.734000	463.285892
2.735000	462.007800
2.736000	461.050779
2.737000	458.183908
2.738000	457.069449
2.739000	455.953483
2.740000	455.314685
2.741000	454.357499
2.742000	452.128250
2.743000	452.282176
2.744000	451.012118
2.745000	452.443126
2.746000	452.286351
2.747000	452.286185
2.748000	451.966952
2.749000	453.081411
2.750000	452.762178
2.751000	454.345937
2.752000	454.981886
2.753000	454.191332
2.754000	454.981207
2.755000	454.981539
2.756000	456.735458
2.757000	459.276404
2.758000	459.595289
2.759000	458.800395
2.760000	460.557495
2.761000	461.500618
2.762000	462.620925
2.763000	463.258215
2.764000	463.091401
2.765000	463.891812
2.766000	464.689208
2.767000	465.167718
2.768000	467.074720
2.769000	468.192028
2.770000	468.505563
2.771000	468.502714
2.772000	468.501538
2.773000	469.455544
2.774000	470.732792
2.775000	469.613479
2.776000	471.208950
2.777000	473.594462
2.778000	473.907334
2.779000	475.820862
2.780000	476.301377
2.781000	474.708076
2.782000	478.687055
2.783000	479.641392
2.784000	481.713534
2.785000	482.189361
2.786000	483.139177
2.787000	484.096694
2.788000	486.009560
2.789000	486.164480
2.790000	487.273407
2.791000	489.824060
2.792000	492.047114
2.793000	493.804214
2.794000	494.754858
2.795000	494.913803
2.796000	497.455080
2.797000	499.688505
2.798000	501.116499
2.799000	503.659614
2.800000	506.051653
2.801000	508.279892
2.802000	509.872514
2.803000	511.305859
2.804000	513.369470
2.805000	517.348780
2.806000	518.299605
2.807000	518.784129
2.808000	522.122139
2.809000	524.193603
2.810000	527.534296
2.811000	528.807022
2.812000	530.712351
2.813000	533.419266
2.814000	535.161126
2.815000	537.395892
2.816000	540.420865
2.817000	543.764391
2.818000	544.712036
2.819000	546.619369
2.820000	550.440246
2.821000	553.626334
2.822000	555.217118
2.823000	556.969695
2.824000	560.150764
2.825000	563.497803
2.826000	566.360152
2.827000	568.419573
2.828000	571.924728
2.829000	575.906208
2.830000	577.175422
2.831000	582.428302
2.832000	585.613894
2.833000	587.683684
2.834000	591.815413
2.835000	594.998321
2.836000	599.457317
2.837000	602.313967
2.838000	606.134166
2.839000	610.434879
2.840000	613.936010
2.841000	617.916495
2.842000	622.050560
2.843000	626.506707
2.844000	631.277730
2.845000	634.619915
2.846000	638.120217
2.847000	644.169483
2.848000	648.627469
2.849000	652.601096
2.850000	658.972610
2.851000	664.381918
2.852000	667.086979
2.853000	672.652565
2.854000	679.340961
2.855000	683.474197
2.856000	688.565779
2.857000	693.984629
2.858000	699.067514
2.859000	704.960352
2.860000	710.205364
2.861000	716.255640
2.862000	722.301063
2.863000	727.874170
2.864000	733.120010
2.865000	738.531670
2.866000	743.777345
2.867000	750.467082
2.868000	755.715108
2.869000	760.650925
2.870000	766.062751
2.871000	771.469210
2.872000	776.086142
2.873000	781.338177
2.874000	786.903085
2.875000	791.675947
2.876000	796.132426
2.877000	802.341316
2.878000	807.278972
2.879000	809.658289
2.880000	814.910159
2.881000	818.890810
2.882000	823.185659
2.883000	828.277597
2.884000	832.093273
2.885000	836.231362
2.886000	839.260012
2.887000	843.555540
2.888000	846.733429
2.889000	850.875694
2.890000	852.778007
2.891000	857.237500
2.892000	861.214979
2.893000	864.235263
2.894000	867.893004
2.895000	870.595728
2.896000	872.512603
2.897000	875.850779
2.898000	883.966355
2.899000	893.203579
2.900000	903.547726
2.901000	908.489920
2.902000	908.799265
2.903000	907.672415
2.904000	911.978992
2.905000	922.175076
2.906000	926.629203
2.907000	925.827119
2.908000	927.411375
2.909000	932.501632
2.910000	943.498127
2.911000	949.062040
2.912000	950.326400
2.913000	948.407671
2.914000	951.580872
2.915000	960.352143
2.916000	965.763306
2.917000	970.538007
2.918000	972.914821
2.919000	974.656351
2.920000	981.031558
2.921000	988.038373
2.922000	993.116918
2.923000	997.726825
2.924000	999.945026
2.925000	1006.947153
2.926000	1013.317010
2.927000	1020.318293
2.928000	1024.136155
2.929000	1028.419639
2.930000	1034.617331
2.931000	1040.659589
2.932000	1047.509629
2.933000	1054.029734
2.934000	1057.845757
2.935000	1062.775063
2.936000	1069.619587
2.937000	1074.548396
2.938000	1077.571876
2.939000	1083.453681
2.940000	1092.519751
2.941000	1100.802820
2.942000	1108.133043
2.943000	1108.915547
2.944000	1112.259090
2.945000	1119.422515
2.946000	1125.632597
2.947000	1132.641085
2.948000	1133.912153
2.949000	1135.970580
2.950000	1139.479097
2.951000	1147.280807
2.952000	1149.039596
2.953000	1148.401642
2.954000	1149.995787
2.955000	1149.679751
2.956000	1150.960195
2.957000	1150.639636
2.958000	1148.409226
2.959000	1144.593882
2.960000	1141.412481
2.961000	1139.987336
2.962000	1137.124324
2.963000	1132.819768
2.964000	1127.092055
2.965000	1122.636919
2.966000	1117.862880
2.967000	1113.736005
2.968000	1107.364989
2.969000	1101.959524
2.970000	1096.708317
2.971000	1090.340315
2.972000	1085.092289
2.973000	1078.882388
2.974000	1073.635703
2.975000	1066.792372
2.976000	1063.930536
2.977000	1058.203502
2.978000	1052.630560
2.979000	1048.018979
2.980000	1042.290604
2.981000	1039.586704
2.982000	1036.086914
2.983000	1031.958366
2.984000	1027.809906
2.985000	1024.156688
2.986000	1021.137911
2.987000	1019.549811
2.988000	1016.366903
2.989000	1013.346777
2.990000	1010.004426
2.991000	1008.415481
2.992000	1005.073296
2.993000	1002.534371
2.994000	1001.574351
2.995000	999.036421
2.996000	997.764539
2.997000	996.015986
2.998000	995.222946
2.999000	992.358261
3.000000	991.554173
3.001000	989.645001
3.002000	989.490759
3.003000	988.540944
3.004000	986.627928
3.005000	985.832537
3.006000	984.716752
3.007000	983.284086
3.008000	981.698322
3.009000	982.021414
3.010000	981.062736
3.011000	981.221185
3.012000	980.106079
3.013000	980.107089
3.014000	979.633282
3.015000	978.678448
3.016000	977.243430
3.017000	977.719107
3.018000	976.604829
3.019000	977.565709
3.020000	976.450587
3.021000	975.809469
3.022000	974.541431
3.023000	974.063600
3.024000	973.265540
3.025000	971.675089
3.026000	971.995001
3.027000	971.998528
3.028000	970.561837
3.029000	970.883256
3.030000	969.608526
3.031000	967.538735
3.032000	967.060904
3.033000	966.261171
3.034000	966.902818
3.035000	964.031606
3.036000	964.987632
3.037000	962.756047
3.038000	962.435322
3.039000	961.329079
3.040000	960.049163
3.041000	957.822597
3.042000	957.503048
3.043000	957.186333
3.044000	955.119723
3.045000	953.998074
3.046000	953.677018
3.047000	952.882968
3.048000	951.129396
3.049000	950.332662
3.050000	949.538115
3.051000	947.781694
3.052000	947.783880
3.053000	947.471355
3.054000	945.234916
3.055000	944.278906
3.056000	943.960351
3.057000	943.162292
3.058000	941.411056
3.059000	939.975707
3.060000	941.411072
3.061000	939.497212
3.062000	939.018039
3.063000	938.543388
3.064000	936.780605
3.065000	935.024018
3.066000	935.988079
3.067000	935.825621
3.068000	935.190020
3.069000	934.389111
3.070000	932.320994
3.071000	933.108864
3.072000	932.797002
3.073000	933.272514
3.074000	933.107554
3.075000	931.037929
3.076000	930.239191
3.077000	931.034433
3.078000	931.836533
3.079000	931.668890
3.080000	931.038805
3.081000	929.596763
3.082000	929.279385
3.083000	928.160585
3.084000	930.072622
3.085000	929.762946
3.086000	930.866869
3.087000	929.116808
3.088000	928.473670
3.089000	929.270419
3.090000	928.159819
3.091000	929.430888
3.092000	928.475043
3.093000	928.792272
3.094000	929.113691
3.095000	928.473899
3.096000	927.674167
3.097000	928.154019
3.098000	928.314985
3.099000	928.319175
3.100000	929.906462
3.101000	928.150372
3.102000	928.626546
3.103000	928.628567
3.104000	928.942615
3.105000	930.541282
3.106000	929.427502
3.107000	930.065471
3.108000	929.740390
3.109000	930.542987
3.110000	931.335379
3.111000	929.583811
3.112000	930.379882
3.113000	930.059323
3.114000	929.260419
3.115000	930.221796
3.116000	931.178319
3.117000	931.330075
3.118000	930.854083
3.119000	932.770973
3.120000	933.084855
3.121000	932.449751
3.122000	932.606692
3.123000	933.244148
3.124000	934.197159
3.125000	933.404783
3.126000	934.195833
3.127000	934.830622
3.128000	935.627355
3.129000	935.788487
3.130000	935.464400
3.131000	936.425777
3.132000	935.779293
3.133000	936.262159
3.134000	936.417262
3.135000	937.369941
3.136000	938.489585
3.137000	939.125203
3.138000	938.005393
3.139000	938.801463
3.140000	940.238667
3.141000	940.554720
3.142000	941.828969
3.143000	941.984568
3.144000	941.659984
3.145000	942.141178
3.146000	943.417597
3.147000	943.417266
3.148000	942.297622
3.149000	942.937927
3.150000	944.684491
3.151000	943.725300
3.152000	943.411931
3.153000	945.004734
3.154000	944.371800
3.155000	944.533926
3.156000	944.371469
3.157000	943.887276
3.158000	942.930769
3.159000	943.576922
3.160000	945.800820
3.161000	943.887623
3.162000	941.818661
3.163000	943.095412
3.164000	943.732703
3.165000	942.939647
3.166000	942.140744
3.167000	941.661405
3.168000	941.661239
3.169000	941.992184
3.170000	941.186588
3.171000	941.024296
3.172000	939.439526
3.173000	940.074978
3.174000	940.081173
3.175000	939.759935
3.176000	939.758941
3.177000	938.962374
3.178000	937.691818
3.179000	937.693491
3.180000	937.217995
3.181000	936.740827
3.182000	936.579379
3.183000	936.743179
3.184000	935.784998
3.185000	935.311010
3.186000	935.153903
3.187000	936.425800
3.188000	934.361360
3.189000	934.517457
3.190000	934.997988
3.191000	934.685281
3.192000	934.685447
3.193000	932.770246
3.194000	933.568155
3.195000	934.686291
3.196000	934.049680
3.197000	934.841062
3.198000	934.049348
3.199000	934.525854
3.200000	934.373269
3.201000	934.212650
3.202000	934.692668
3.203000	934.213163
3.204000	934.375455
3.205000	934.531221
3.206000	936.132721
3.207000	934.381319
3.208000	934.377476
3.209000	935.019619
3.210000	934.542285
3.211000	934.217867
3.212000	935.656578
3.213000	935.819202
3.214000	935.656412
3.215000	935.816700
3.216000	936.616116
3.217000	935.816037
3.218000	937.256421
3.219000	939.010009
3.220000	938.530836
3.221000	937.893049
3.222000	937.896063
3.223000	937.737118
3.224000	939.966880
3.225000	939.643969
3.226000	941.401401
3.227000	941.884267
3.228000	940.926584
3.229000	941.884449
3.230000	942.519221
3.231000	943.636529
3.232000	942.679012
3.233000	944.277166
3.234000	944.435449
3.235000	945.393977
3.236000	946.351163
3.237000	944.598585
3.238000	945.232529
3.239000	945.237217
3.240000	946.669401
3.241000	945.870498
3.242000	945.871674
3.243000	946.676275
3.244000	947.950690
3.245000	946.834558
3.246000	947.792755
3.247000	947.152797
3.248000	948.119856
3.249000	947.640683
3.250000	947.957067
3.251000	947.321963
3.252000	947.644542
3.253000	948.281666
3.254000	948.120550
3.255000	946.214891
3.256000	947.175589
3.257000	947.649924
3.258000	947.338394
3.259000	948.295083
3.260000	949.255118
3.261000	948.613156
3.262000	949.254124
3.263000	948.459908
3.264000	948.464596
3.265000	948.782156
3.266000	948.627732
3.267000	949.109257
3.268000	949.108263
3.269000	947.996819
3.270000	949.114624
3.271000	949.428506
3.272000	949.595154
3.273000	948.159126
3.274000	949.119659
3.275000	948.159805
3.276000	949.438063
3.277000	948.806139
3.278000	950.404294
3.279000	950.086915
3.280000	950.404972
3.281000	948.654068
3.282000	949.132246
3.283000	948.657595
3.284000	949.451811
3.285000	949.616621
3.286000	949.936351
3.287000	951.055000
3.288000	950.417213
3.289000	950.740952
3.290000	951.854251
3.291000	951.701501
3.292000	952.018895
3.293000	952.335279
3.294000	951.855427
3.295000	951.221996
3.296000	951.859452
3.297000	954.575908
3.298000	953.622913
3.299000	954.098574
3.300000	953.145744
3.301000	954.578095
3.302000	954.899664
3.303000	955.061293
3.304000	954.427349
3.305000	955.218565
3.306000	955.221580
3.307000	954.582285
3.308000	954.105117
3.309000	955.227941
3.310000	955.865728
3.311000	954.269926
3.312000	955.229283
3.313000	954.276287
3.314000	954.595686
3.315000	953.804469
3.316000	953.800626
3.317000	952.685835
3.318000	952.057921
3.319000	951.418129
3.320000	951.901824
3.321000	950.785692
3.322000	950.470650
3.323000	949.996993
3.324000	950.637464
3.325000	949.840730
3.326000	949.043831
3.327000	948.250942
3.328000	947.300629
3.329000	947.302137
3.330000	946.669534
3.331000	946.831329
3.332000	946.034927
3.333000	944.763874
3.334000	944.603256
3.335000	943.173754
3.336000	944.133955
3.337000	942.537308
3.338000	942.864741
3.339000	941.595527
3.340000	940.642863
3.341000	940.002392
3.342000	939.211689
3.343000	939.211026
3.344000	939.692716
3.345000	938.741212
3.346000	938.909202
3.347000	936.681461
3.348000	937.002698
3.349000	935.248281
3.350000	937.005381
3.351000	935.897781
3.352000	934.782162
3.353000	935.260340
3.354000	934.627738
3.355000	933.198237
3.356000	934.316720
3.357000	933.517138
3.358000	933.362383
3.359000	933.044492
3.360000	932.414407
3.361000	931.139495
3.362000	931.629054
3.363000	931.941429
3.364000	930.672878
3.365000	931.315187
3.366000	930.354158
3.367000	930.521137
3.368000	929.571488
3.369000	930.845390
3.370000	929.094485
3.371000	927.979695
3.372000	929.095827
3.373000	928.462561
3.374000	929.419582
3.375000	929.418075
3.376000	928.468757
3.377000	929.433977
3.378000	927.679063
3.379000	928.318524
3.380000	927.683585
3.381000	930.074961
3.382000	927.365197
3.383000	929.922210
3.384000	930.722290
3.385000	930.721461
3.386000	932.158499
3.387000	931.838603
3.388000	933.599215
3.389000	934.868942
3.390000	935.513422
3.391000	935.355321
3.392000	935.514101
3.393000	935.832158
3.394000	936.798720
3.395000	937.429815
3.396000	938.074973
3.397000	939.191271
3.398000	940.790436
3.399000	941.905226
3.400000	943.498195
3.401000	942.704642
3.402000	942.866437
3.403000	944.943599
3.404000	945.584235
3.405000	945.425290
3.406000	946.865343
3.407000	947.180054
3.408000	948.140918
3.409000	947.663086
3.410000	947.514676
3.411000	950.061485
3.412000	948.628804
3.413000	949.741424
3.414000	949.428883
3.415000	950.707473
3.416000	950.872945
3.417000	951.349948
3.418000	950.072534
3.419000	949.921457
3.420000	949.922451
3.421000	951.356143
3.422000	951.519264
3.423000	950.566103
3.424000	951.200212
3.425000	951.522279
3.426000	949.932656
3.427000	951.849712
3.428000	950.894198
3.429000	951.374879
3.430000	951.056490
3.431000	952.491508
3.432000	951.374879
3.433000	950.099470
3.434000	952.176632
3.435000	951.062173
3.436000	952.345119
3.437000	951.063349
3.438000	952.506235
3.439000	952.189511
3.440000	953.148537
3.441000	952.514095
3.442000	952.831142
3.443000	951.560089
3.444000	953.160580
3.445000	952.524134
3.446000	952.842025
3.447000	953.963674
3.448000	953.809582
3.449000	953.650139
3.450000	953.970035
3.451000	953.176482
3.452000	954.132161
3.453000	953.813938
3.454000	953.663192
3.455000	953.663358
3.456000	954.148727
3.457000	953.986103
3.458000	953.987610
3.459000	953.987942
3.460000	952.715547
3.461000	954.469467
3.462000	954.635602
3.463000	955.592623
3.464000	954.797729
3.465000	954.799402
3.466000	955.441033
3.467000	955.923899
3.468000	954.010537
3.469000	956.402244
3.470000	955.925241
3.471000	956.886602
3.472000	956.409102
3.473000	955.930592
3.474000	955.458277
3.475000	957.051743
3.476000	955.778173
3.477000	956.418975
3.478000	957.854837
3.479000	957.386366
3.480000	957.379673
3.481000	959.133593
3.482000	957.223908
3.483000	958.182270
3.484000	958.028675
3.485000	958.827082
3.486000	958.829931
3.487000	959.944555
3.488000	959.154349
3.489000	958.993730
3.490000	959.156353
3.491000	958.995734
3.492000	959.163890
3.493000	958.203523
3.494000	957.568585
3.495000	957.894510
3.496000	959.167236
3.497000	958.852194
3.498000	957.104635
3.499000	959.019174
3.500000	958.383059
3.501000	956.951206
3.502000	957.753969
3.503000	957.117689
3.504000	956.802812
3.505000	956.645042
3.506000	955.689861
3.507000	955.699733
3.508000	955.377999
3.509000	954.266720
3.510000	954.588289
3.511000	954.589962
3.512000	953.640313
3.513000	953.797917
3.514000	953.160295
3.515000	953.166159
3.516000	953.327109
3.517000	952.373269
3.518000	952.698185
3.519000	951.269859
3.520000	950.952134
3.521000	951.753389
3.522000	949.202405
3.523000	949.681744
3.524000	949.209263
3.525000	949.050317
3.526000	949.215624
3.527000	947.462036
3.528000	945.873589
3.529000	948.107692
3.530000	946.673502
3.531000	946.519908
3.532000	947.635211
3.533000	947.319655
3.534000	946.520420
3.535000	945.092426
3.536000	944.934144
3.537000	945.899696
3.538000	946.211060
3.539000	943.986996
3.540000	943.829226
3.541000	944.314595
3.542000	944.794612
3.543000	944.478725
3.544000	946.227460
3.545000	943.683168
3.546000	944.166864
3.547000	943.209677
3.548000	944.804154
3.549000	943.058268
3.550000	942.896308
3.551000	943.056595
3.552000	942.741553
3.553000	943.704090
3.554000	943.866382
3.555000	943.709109
3.556000	942.278432
3.557000	942.755103
3.558000	942.917064
3.559000	943.081526
3.560000	942.917230
3.561000	942.122335
3.562000	942.286466
3.563000	942.612557
3.564000	942.607870
3.565000	942.447085
3.566000	941.019588
3.567000	940.858638
3.568000	941.492069
3.569000	940.383474
3.570000	941.022437
3.571000	941.822682
3.572000	940.863823
3.573000	942.461811
3.574000	940.867335
3.575000	940.080143
3.576000	940.078470
3.577000	940.713409
3.578000	940.239089
3.579000	940.560824
3.580000	939.443184
3.581000	939.924875
3.582000	939.921032
3.583000	940.721111
3.584000	939.929729
3.585000	940.090182
3.586000	940.404727
3.587000	939.768778
3.588000	939.293449
3.589000	940.091689
3.590000	940.254313
3.591000	939.941772
3.592000	939.614852
3.593000	941.053729
3.594000	940.099045
3.595000	940.578399
3.596000	938.504749
3.597000	939.942616
3.598000	939.622886
3.599000	940.106921
3.600000	939.631591
3.601000	938.508103
3.602000	938.352504
3.603000	940.270554
3.604000	939.308514
3.605000	939.311861
3.606000	938.036451
3.607000	938.838883
3.608000	938.996818
3.609000	938.198743
3.610000	937.723579
3.611000	938.518474
3.612000	937.885871
3.613000	939.004852
3.614000	937.880686
3.615000	938.200914
3.616000	937.559946
3.617000	938.205436
3.618000	937.569653
3.619000	937.728101
3.620000	937.569819
3.621000	937.888042
3.622000	937.888373
3.623000	937.250254
3.624000	937.094986
3.625000	937.250586
3.626000	937.254263
3.627000	938.532190
3.628000	939.006178
3.629000	937.885193
3.630000	938.688452
3.631000	937.576677
3.632000	938.841203
3.633000	936.931187
3.634000	938.524322
3.635000	938.847232
3.636000	939.169465
3.637000	939.643121
3.638000	940.596796
3.639000	939.321718
3.640000	939.807086
3.641000	938.690789
3.642000	939.807418
3.643000	940.282582
3.644000	941.397538
3.645000	940.600473
3.646000	942.036501
3.647000	941.079149
3.648000	941.082661
3.649000	941.397869
3.650000	940.125475
3.651000	942.194271
3.652000	942.674455
3.653000	943.630133
3.654000	942.033487
3.655000	942.989165
3.656000	943.146272
3.657000	944.105960
3.658000	945.064654
3.659000	944.740402
3.660000	943.146770
3.661000	944.267921
3.662000	944.424018
3.663000	946.021675
3.664000	945.226946
3.665000	945.224776
3.666000	945.228453
3.667000	945.702276
3.668000	945.544672
3.669000	944.108644
3.670000	945.862563
3.671000	945.705456
3.672000	944.912069
3.673000	946.025187
3.674000	945.865412
3.675000	946.982704
3.676000	946.024689
3.677000	946.828115
3.678000	946.665657
3.679000	947.462059
3.680000	946.986564
3.681000	946.188655
3.682000	947.305118
3.683000	947.626024
3.684000	947.940735
3.685000	946.032724
3.686000	947.471435
3.687000	947.147348
3.688000	946.827121
3.689000	948.269675
3.690000	948.106886
3.691000	948.113744
3.692000	947.156227
3.693000	947.951452
3.694000	946.518771
3.695000	946.357655
3.696000	949.227706
3.697000	947.482484
3.698000	948.114423
3.699000	948.593099
3.700000	948.277047
3.701000	946.842526
3.702000	947.645123
3.703000	948.119442
3.704000	947.639093
3.705000	947.326900
3.706000	947.010516
3.707000	947.646630
3.708000	946.052998
3.709000	945.897564
3.710000	945.263289
3.711000	946.693800
3.712000	947.488695
3.713000	945.744648
3.714000	944.785789
3.715000	945.428430
3.716000	945.106695
3.717000	945.426094
3.718000	945.275513
3.719000	943.995251
3.720000	944.160392
3.721000	943.840827
3.722000	943.366839
3.723000	944.004626
3.724000	943.528799
3.725000	942.093103
3.726000	943.204215
3.727000	941.620622
3.728000	943.053635
3.729000	942.088249
3.730000	941.782914
3.731000	940.983000
3.732000	941.941860
3.733000	939.866371
3.734000	941.466198
3.735000	941.942870
3.736000	941.156507
3.737000	939.872235
3.738000	940.992376
3.739000	940.990537
3.740000	941.155347
3.741000	940.360286
3.742000	941.316628
3.743000	940.837289
3.744000	938.601513
3.745000	940.201507
3.746000	939.246159
3.747000	939.088555
3.748000	939.567728
3.749000	939.570246
3.750000	940.048756
3.751000	939.093077
3.752000	938.928946
3.753000	938.934297
3.754000	938.778532
3.755000	939.096258
3.756000	939.095926
3.757000	939.415822
3.758000	939.411979
3.759000	937.658391
3.760000	938.457973
3.761000	938.143593
3.762000	938.779542
3.763000	936.875042
3.764000	937.827209
3.765000	937.664752
3.766000	937.510162
3.767000	936.233909
3.768000	937.354563
3.769000	936.074631
3.770000	936.399215
3.771000	938.148281
3.772000	937.195949
3.773000	934.807422
3.774000	937.834912
3.775000	937.992350
3.776000	937.037681
3.777000	938.633152
3.778000	937.195451
3.779000	937.675635
3.780000	936.716610
3.781000	936.559503
3.782000	936.719790
3.783000	936.242456
3.784000	936.724809
3.785000	937.042204
3.786000	936.721132
3.787000	936.078325
3.788000	936.722639
3.789000	936.406089
3.790000	937.994039
3.791000	936.091213
3.792000	934.970061
3.793000	937.200652
3.794000	936.400904
3.795000	936.404416
3.796000	936.569889
3.797000	938.156331
3.798000	935.291465
3.799000	934.969895
3.800000	935.925077
3.801000	936.400738
3.802000	935.288963
3.803000	936.564041
3.804000	934.971071
3.805000	936.402246
3.806000	934.650347
3.807000	937.039370
3.808000	936.408110
3.809000	935.766976
3.810000	936.402080
3.811000	935.766976
3.812000	936.559187
3.813000	935.447909
3.814000	934.175017
3.815000	935.604518
3.816000	934.969911
3.817000	935.448919
3.818000	934.166817
3.819000	935.607533
3.820000	934.808961
3.821000	935.923751
3.822000	934.643654
3.823000	934.171173
3.824000	934.330119
3.825000	935.600840
3.826000	934.810800
3.827000	934.485884
3.828000	935.283959
3.829000	934.166486
3.830000	933.848097
3.831000	934.326607
3.832000	934.483880
3.833000	933.849936
3.834000	933.855468
3.835000	932.892086
3.836000	933.852785
3.837000	933.216173
3.838000	933.531216
3.839000	933.368426
3.840000	933.057227
3.841000	933.527869
3.842000	933.695181
3.843000	933.212827
3.844000	934.008218
3.845000	932.092851
3.846000	934.004541
3.847000	934.486563
3.848000	933.529211
3.849000	933.373611
3.850000	932.570186
3.851000	934.004541
3.852000	933.527372
3.853000	932.728469
3.854000	933.525533
3.855000	933.047189
3.856000	934.322432
3.857000	932.565001
3.858000	934.477700
3.859000	934.000863
3.860000	934.954537
3.861000	933.840078
3.862000	933.682474
3.863000	934.000532
3.864000	934.790059
3.865000	936.383873
3.866000	934.473012
3.867000	934.952201
3.868000	934.954206
3.869000	934.635470
3.870000	935.900509
3.871000	935.905197
3.872000	935.430033
3.873000	935.583959
3.874000	934.787558
3.875000	935.259541
3.876000	936.223751
3.877000	937.021329
3.878000	936.063298
3.879000	935.902348
3.880000	938.287197
3.881000	937.018314
3.882000	937.490464
3.883000	937.013295
3.884000	938.279841
3.885000	937.808355
3.886000	938.121724
3.887000	939.073891
3.888000	937.164033
3.889000	937.482422
3.890000	938.596549
3.891000	939.079913
3.892000	938.435930
3.893000	939.390102
3.894000	939.707149
3.895000	939.226634
3.896000	939.545701
3.897000	940.499210
3.898000	940.501380
3.899000	941.299289
3.900000	941.776458
3.901000	941.140344
3.902000	940.496195
3.903000	942.407553
3.904000	941.927038
3.905000	942.241915
3.906000	943.672924
3.907000	943.038648
3.908000	942.879371
3.909000	943.199433
3.910000	942.555963
3.911000	944.148585
3.912000	943.197262
3.913000	944.467487
3.914000	942.235222
3.915000	943.189394
3.916000	944.467652
3.917000	943.665734
3.918000	943.665734
3.919000	943.826850
3.920000	942.704026
3.921000	943.657866
3.922000	944.459121
3.923000	943.818650
3.924000	944.137386
3.925000	944.455443
3.926000	943.503276
3.927000	943.971582
3.928000	943.817822
3.929000	943.497926
3.930000	942.536217
3.931000	943.968567
3.932000	942.852270
3.933000	943.808959
3.934000	943.653359
3.935000	943.176025
3.936000	942.533715
3.937000	942.215990
3.938000	942.848758
3.939000	942.688983
3.940000	942.848758
3.941000	943.005699
3.942000	943.482039
3.943000	941.413740
3.944000	941.409218
3.945000	940.457729
3.946000	940.935064
3.947000	940.770767
3.948000	940.289077
3.949000	939.021867
3.950000	941.247107
3.951000	939.016351
3.952000	939.652299
3.953000	938.857571
3.954000	938.537509
3.955000	939.333911
3.956000	938.374720
3.957000	938.848874
3.958000	939.011165
3.959000	938.053648
3.960000	937.891356
3.961000	938.850215
3.962000	937.730240
3.963000	937.418709
3.964000	938.049639
3.965000	939.006825
3.966000	936.933341
3.967000	937.572138
3.968000	937.252574
3.969000	937.729908
3.970000	937.570134
3.971000	937.409349
3.972000	938.362511
3.973000	937.408339
3.974000	936.926317
3.975000	938.524305
3.976000	937.885011
3.977000	938.202405
3.978000	938.355321
3.979000	938.838685
3.980000	937.720548
3.981000	938.672881
3.982000	938.195547
3.983000	938.676227
3.984000	940.103890
3.985000	938.990772
3.986000	940.265353
3.987000	940.742356
3.988000	940.103061
3.989000	941.063428
3.990000	941.697372
3.991000	941.220535
3.992000	941.853137
3.993000	940.736839
3.994000	940.256490
3.995000	941.695533
3.996000	941.062931
3.997000	941.215184
3.998000	940.092691
3.999000	941.849459
