BioWare Version 5.3.0.7 Export
Device:	4827095 9260AA6
Samples (#):	4000
Rate (Hz):	1000.000000
Contact period start (sample #):	0
Contact period end (sample #):	3999
Contact period start time (s):	0.000000
Contact period end time (s):	3.999000
First sample time (s):	0.000000
Normalized force (N):	2.549780
Normalized length (m):	1.000000
File Information
Date	May 25, 2017  16:05:06
Name	
ID	
Classification	
Description	
abs time (s)	Fz
	N
0.000000	850.765463
0.001000	852.037194
0.002000	851.087710
0.003000	852.356427
0.004000	850.289635
0.005000	850.131021
0.006000	849.168816
0.007000	850.122490
0.008000	850.917882
0.009000	849.488049
0.010000	848.693320
0.011000	848.371238
0.012000	847.895245
0.013000	847.096839
0.014000	847.577354
0.015000	846.775767
0.016000	847.737973
0.017000	845.338232
0.018000	845.980375
0.019000	844.546683
0.020000	844.859224
0.021000	844.540835
0.022000	844.543171
0.023000	845.344427
0.024000	844.228295
0.025000	844.706474
0.026000	842.954227
0.027000	843.909575
0.028000	843.590010
0.029000	843.434742
0.030000	843.275465
0.031000	843.750629
0.032000	842.319786
0.033000	842.796623
0.034000	841.839437
0.035000	842.318113
0.036000	841.680823
0.037000	842.799472
0.038000	842.796789
0.039000	841.685345
0.040000	843.591849
0.041000	840.567871
0.042000	841.364273
0.043000	841.201649
0.044000	841.367785
0.045000	841.201815
0.046000	840.564359
0.047000	841.203157
0.048000	842.160343
0.049000	840.733343
0.050000	841.521877
0.051000	839.770972
0.052000	842.000387
0.053000	840.565369
0.054000	840.249648
0.055000	841.206834
0.056000	841.519706
0.057000	840.727827
0.058000	841.685013
0.059000	840.250990
0.060000	839.455101
0.061000	840.564028
0.062000	839.296652
0.063000	839.292130
0.064000	839.611695
0.065000	840.250824
0.066000	840.885762
0.067000	840.883758
0.068000	839.454422
0.069000	841.526399
0.070000	840.886938
0.071000	839.928410
0.072000	841.050572
0.073000	840.567540
0.074000	840.888943
0.075000	841.688857
0.076000	842.161850
0.077000	841.206669
0.078000	841.846295
0.079000	841.683837
0.080000	842.005406
0.081000	841.364438
0.082000	843.598541
0.083000	843.755317
0.084000	843.275465
0.085000	842.319786
0.086000	843.288518
0.087000	843.277138
0.088000	845.034238
0.089000	843.275796
0.090000	843.119202
0.091000	844.079056
0.092000	843.914925
0.093000	843.755814
0.094000	844.554220
0.095000	845.029882
0.096000	844.549035
0.097000	843.912076
0.098000	844.080066
0.099000	845.823269
0.100000	845.352627
0.101000	845.670187
0.102000	847.104707
0.103000	845.987399
0.104000	846.619339
0.105000	848.701188
0.106000	848.063898
0.107000	848.702862
0.108000	849.020587
0.109000	848.860631
0.110000	849.656702
0.111000	848.063898
0.112000	847.422930
0.113000	848.062391
0.114000	847.271190
0.115000	847.588403
0.116000	845.031555
0.117000	846.471939
0.118000	846.786650
0.119000	847.109395
0.120000	846.150867
0.121000	845.190003
0.122000	846.473115
0.123000	845.358822
0.124000	844.563596
0.125000	845.348949
0.126000	845.191345
0.127000	845.196198
0.128000	846.630388
0.129000	844.715684
0.130000	844.563596
0.131000	844.078725
0.132000	844.078062
0.133000	844.717854
0.134000	844.560416
0.135000	844.555396
0.136000	843.760170
0.137000	843.279490
0.138000	842.647550
0.139000	844.404650
0.140000	844.560084
0.141000	842.007924
0.142000	843.443786
0.143000	842.801477
0.144000	842.486269
0.145000	842.011104
0.146000	842.488439
0.147000	841.853832
0.148000	841.535443
0.149000	840.902841
0.150000	840.893299
0.151000	840.578588
0.152000	840.742222
0.153000	840.740549
0.154000	840.266726
0.155000	841.862710
0.156000	840.583276
0.157000	840.906021
0.158000	841.060113
0.159000	840.260200
0.160000	839.463632
0.161000	841.064967
0.162000	840.587964
0.163000	840.579930
0.164000	839.624085
0.165000	841.066474
0.166000	840.581272
0.167000	839.945157
0.168000	841.058109
0.169000	840.744227
0.170000	840.579764
0.171000	840.741559
0.172000	842.174407
0.173000	840.899329
0.174000	841.697735
0.175000	843.133597
0.176000	842.651575
0.177000	842.974154
0.178000	843.456342
0.179000	842.974154
0.180000	842.015627
0.181000	842.654590
0.182000	845.367700
0.183000	844.411690
0.184000	845.208423
0.185000	844.731420
0.186000	846.007161
0.187000	845.203570
0.188000	846.164765
0.189000	845.844372
0.190000	845.690777
0.191000	846.163771
0.192000	846.482159
0.193000	846.960835
0.194000	847.119947
0.195000	846.483667
0.196000	847.279058
0.197000	847.756906
0.198000	847.127815
0.199000	847.277385
0.200000	846.642778
0.201000	847.120791
0.202000	847.281410
0.203000	847.762256
0.204000	847.287937
0.205000	846.646969
0.206000	847.442029
0.207000	847.922046
0.208000	848.559502
0.209000	848.880740
0.210000	849.522040
0.211000	848.082997
0.212000	848.246796
0.213000	849.201812
0.214000	847.930081
0.215000	848.565698
0.216000	848.885428
0.217000	847.133347
0.218000	848.090368
0.219000	845.856265
0.220000	847.130001
0.221000	846.813286
0.222000	846.018391
0.223000	845.699837
0.224000	846.019733
0.225000	845.541388
0.226000	845.703349
0.227000	846.023079
0.228000	846.495228
0.229000	845.073595
0.230000	845.863305
0.231000	847.303010
0.232000	848.256685
0.233000	847.458444
0.234000	847.776501
0.235000	847.619063
0.236000	848.895980
0.237000	848.413626
0.238000	846.823671
0.239000	847.938628
0.240000	848.415133
0.241000	847.301850
0.242000	847.459786
0.243000	849.056598
0.244000	848.100588
0.245000	848.576084
0.246000	849.057774
0.247000	849.055770
0.248000	849.691884
0.249000	847.783872
0.250000	848.895317
0.251000	849.695396
0.252000	848.419987
0.253000	849.528416
0.254000	849.533104
0.255000	847.935116
0.256000	849.693557
0.257000	847.456274
0.258000	849.218725
0.259000	849.375666
0.260000	849.059447
0.261000	849.212032
0.262000	848.095734
0.263000	848.099081
0.264000	849.854342
0.265000	848.893478
0.266000	850.331510
0.267000	850.651406
0.268000	851.289028
0.269000	851.447808
0.270000	850.806840
0.271000	849.854342
0.272000	851.129917
0.273000	851.447642
0.274000	851.283843
0.275000	851.282170
0.276000	850.331179
0.277000	851.446632
0.278000	849.695396
0.279000	850.966962
0.280000	850.328330
0.281000	851.285848
0.282000	849.856015
0.283000	852.401648
0.284000	849.530089
0.285000	850.970474
0.286000	850.013288
0.287000	849.537958
0.288000	850.493471
0.289000	850.333184
0.290000	852.245883
0.291000	849.695065
0.292000	850.660782
0.293000	850.335867
0.294000	850.650744
0.295000	851.613281
0.296000	852.093133
0.297000	851.127581
0.298000	852.086274
0.299000	851.289707
0.300000	851.129254
0.301000	851.294395
0.302000	850.809358
0.303000	851.773071
0.304000	850.815719
0.305000	849.858035
0.306000	850.657270
0.307000	849.863386
0.308000	851.134107
0.309000	849.856859
0.310000	850.333696
0.311000	850.497164
0.312000	850.016981
0.313000	850.018986
0.314000	850.650081
0.315000	851.612120
0.316000	849.541983
0.317000	850.974499
0.318000	850.338882
0.319000	849.541485
0.320000	850.657783
0.321000	849.382871
0.322000	849.859543
0.323000	849.698079
0.324000	849.540310
0.325000	848.420997
0.326000	848.740396
0.327000	848.426529
0.328000	848.268247
0.329000	848.262564
0.330000	847.943497
0.331000	849.062644
0.332000	847.948350
0.333000	848.585806
0.334000	849.700597
0.335000	848.265066
0.336000	848.903864
0.337000	847.951697
0.338000	849.384047
0.339000	848.105457
0.340000	849.223760
0.341000	848.584133
0.342000	848.108969
0.343000	848.584133
0.344000	849.066156
0.345000	849.224936
0.346000	848.107462
0.347000	849.067331
0.348000	848.585641
0.349000	848.268247
0.350000	849.069005
0.351000	848.741240
0.352000	848.751610
0.353000	848.110642
0.354000	849.382208
0.355000	849.228448
0.356000	848.584299
0.357000	849.388569
0.358000	850.023010
0.359000	848.268925
0.360000	848.430538
0.361000	849.226940
0.362000	849.067497
0.363000	848.749772
0.364000	849.865904
0.365000	850.185302
0.366000	849.231628
0.367000	850.501189
0.368000	850.021503
0.369000	850.026191
0.370000	851.143830
0.371000	849.379193
0.372000	851.291561
0.373000	851.617818
0.374000	850.503194
0.375000	852.100172
0.376000	850.821251
0.377000	852.093480
0.378000	852.253933
0.379000	852.416888
0.380000	853.214465
0.381000	853.054344
0.382000	853.527835
0.383000	853.056017
0.384000	853.531181
0.385000	853.849404
0.386000	854.485352
0.387000	855.286442
0.388000	854.166964
0.389000	854.481675
0.390000	855.442539
0.391000	855.596797
0.392000	855.926400
0.393000	856.076980
0.394000	855.918366
0.395000	855.119959
0.396000	856.397042
0.397000	854.958843
0.398000	856.079316
0.399000	856.079150
0.400000	855.914854
0.401000	854.161266
0.402000	854.799053
0.403000	854.481162
0.404000	853.840360
0.405000	854.484508
0.406000	853.998642
0.407000	854.475977
0.408000	852.884681
0.409000	854.481493
0.410000	854.154905
0.411000	853.522137
0.412000	853.520629
0.413000	853.046641
0.414000	854.486347
0.415000	852.725238
0.416000	852.571477
0.417000	853.046973
0.418000	852.563609
0.419000	852.408854
0.420000	852.730920
0.421000	851.767041
0.422000	852.886354
0.423000	852.724062
0.424000	851.768383
0.425000	851.926650
0.426000	851.286858
0.427000	852.088445
0.428000	852.249229
0.429000	851.284009
0.430000	851.293716
0.431000	851.447808
0.432000	850.966283
0.433000	852.881997
0.434000	851.605081
0.435000	851.131756
0.436000	850.648060
0.437000	852.079400
0.438000	852.236507
0.439000	852.715183
0.440000	853.197206
0.441000	852.556569
0.442000	852.394277
0.443000	851.915767
0.444000	851.283164
0.445000	850.165857
0.446000	850.323295
0.447000	851.757153
0.448000	851.278974
0.449000	851.916264
0.450000	851.591514
0.451000	851.115175
0.452000	851.120194
0.453000	853.662647
0.454000	851.749782
0.455000	852.394427
0.456000	852.867587
0.457000	852.388066
0.458000	851.913415
0.459000	851.269764
0.460000	851.909059
0.461000	852.066829
0.462000	851.751786
0.463000	850.789746
0.464000	852.390402
0.465000	851.907883
0.466000	851.750776
0.467000	851.432056
0.468000	852.065653
0.469000	851.270427
0.470000	851.585138
0.471000	851.269085
0.472000	850.473694
0.473000	851.110818
0.474000	851.746088
0.475000	851.906707
0.476000	852.704616
0.477000	851.908546
0.478000	851.908214
0.479000	850.628117
0.480000	850.317763
0.481000	851.264232
0.482000	849.990495
0.483000	852.225774
0.484000	850.308055
0.485000	852.386559
0.486000	851.744249
0.487000	851.906375
0.488000	851.426855
0.489000	850.788736
0.490000	851.103613
0.491000	851.591830
0.492000	851.905034
0.493000	850.787394
0.494000	852.375344
0.495000	852.546168
0.496000	851.585469
0.497000	851.429538
0.498000	851.423012
0.499000	851.426689
0.500000	851.753112
0.501000	850.627107
0.502000	851.108466
0.503000	851.428362
0.504000	851.900180
0.505000	850.787560
0.506000	849.356054
0.507000	850.310226
0.508000	848.877875
0.509000	849.831881
0.510000	849.673614
0.511000	849.038660
0.512000	848.237073
0.513000	847.442013
0.514000	847.605812
0.515000	848.561326
0.516000	847.764758
0.517000	844.896214
0.518000	846.009166
0.519000	844.571464
0.520000	845.851561
0.521000	844.890863
0.522000	842.819715
0.523000	843.619463
0.524000	844.250724
0.525000	843.932501
0.526000	844.572293
0.527000	842.970461
0.528000	842.811681
0.529000	843.611595
0.530000	844.408328
0.531000	844.565103
0.532000	843.447961
0.533000	842.818042
0.534000	844.726219
0.535000	844.090271
0.536000	843.444284
0.537000	844.404816
0.538000	842.492448
0.539000	842.172718
0.540000	842.653067
0.541000	842.652570
0.542000	842.965607
0.543000	842.017284
0.544000	843.130235
0.545000	842.333337
0.546000	843.133416
0.547000	842.967281
0.548000	842.969119
0.549000	842.172883
0.550000	842.489102
0.551000	843.129407
0.552000	843.607238
0.553000	844.246202
0.554000	842.810671
0.555000	844.080564
0.556000	845.038579
0.557000	845.839668
0.558000	844.566429
0.559000	843.921618
0.560000	845.200373
0.561000	845.041759
0.562000	846.633552
0.563000	843.923457
0.564000	847.270180
0.565000	845.681220
0.566000	845.677542
0.567000	845.999111
0.568000	844.720521
0.569000	846.954624
0.570000	846.637909
0.571000	846.636236
0.572000	846.316671
0.573000	846.154379
0.574000	847.274023
0.575000	847.912308
0.576000	847.114746
0.577000	847.905450
0.578000	848.551105
0.579000	847.110058
0.580000	847.271174
0.581000	846.628367
0.582000	847.909127
0.583000	848.064064
0.584000	847.274023
0.585000	847.754207
0.586000	847.590407
0.587000	847.113736
0.588000	847.904952
0.589000	849.180030
0.590000	847.590739
0.591000	846.469587
0.592000	847.429457
0.593000	847.272516
0.594000	846.785640
0.595000	847.269004
0.596000	846.793674
0.597000	846.315164
0.598000	845.995765
0.599000	845.682230
0.600000	845.671181
0.601000	845.683903
0.602000	843.600049
0.603000	844.399118
0.604000	845.041096
0.605000	845.362665
0.606000	845.356139
0.607000	845.200539
0.608000	844.238831
0.609000	845.515084
0.610000	845.995765
0.611000	845.512567
0.612000	844.078378
0.613000	845.678039
0.614000	845.196183
0.615000	846.147008
0.616000	845.989901
0.617000	846.786303
0.618000	847.909459
0.619000	847.424256
0.620000	846.783785
0.621000	847.737957
0.622000	846.938209
0.623000	848.057853
0.624000	848.854089
0.625000	848.056511
0.626000	849.166117
0.627000	850.287102
0.628000	849.810597
0.629000	848.854586
0.630000	849.807748
0.631000	850.613525
0.632000	850.605491
0.633000	852.203645
0.634000	851.723462
0.635000	852.042529
0.636000	851.246625
0.637000	851.082494
0.638000	853.311909
0.639000	853.314924
0.640000	852.677799
0.641000	854.273617
0.642000	853.792092
0.643000	852.838749
0.644000	855.385227
0.645000	855.066823
0.646000	855.231964
0.647000	853.154968
0.648000	854.585976
0.649000	855.862064
0.650000	856.342413
0.651000	855.703284
0.652000	854.429880
0.653000	856.183633
0.654000	855.546840
0.655000	854.593679
0.656000	856.342579
0.657000	856.821421
0.658000	855.222935
0.659000	856.019668
0.660000	856.821421
0.661000	856.662310
0.662000	855.701611
0.663000	855.546343
0.664000	856.658632
0.665000	857.137474
0.666000	855.863903
0.667000	855.544339
0.668000	856.340906
0.669000	856.660305
0.670000	855.225106
0.671000	855.861899
0.672000	856.342413
0.673000	855.222604
0.674000	856.183468
0.675000	854.747274
0.676000	854.593182
0.677000	854.906220
0.678000	855.385061
0.679000	853.953721
0.680000	854.434236
0.681000	853.795107
0.682000	852.845955
0.683000	852.671785
0.684000	852.829058
0.685000	852.201806
0.686000	851.717945
0.687000	851.244123
0.688000	849.808260
0.689000	850.123966
0.690000	850.286605
0.691000	848.533183
0.692000	847.577172
0.693000	848.217130
0.694000	848.215126
0.695000	848.056180
0.696000	847.417895
0.697000	847.261120
0.698000	846.299080
0.699000	846.299759
0.700000	845.669326
0.701000	844.713648
0.702000	845.826433
0.703000	845.028193
0.704000	843.436565
0.705000	845.985048
0.706000	843.123362
0.707000	844.234971
0.708000	844.232967
0.709000	843.921602
0.710000	842.959562
0.711000	842.326628
0.712000	842.644354
0.713000	842.801958
0.714000	842.326463
0.715000	841.524876
0.716000	841.847621
0.717000	842.806315
0.718000	839.620045
0.719000	842.172205
0.720000	840.100062
0.721000	840.413597
0.722000	841.375306
0.723000	839.935932
0.724000	838.667215
0.725000	841.854148
0.726000	838.511284
0.727000	840.419295
0.728000	838.665707
0.729000	838.671571
0.730000	837.229348
0.731000	837.711204
0.732000	837.396825
0.733000	838.829175
0.734000	836.275508
0.735000	838.030106
0.736000	837.237050
0.737000	837.399177
0.738000	837.558620
0.739000	836.602775
0.740000	835.958627
0.741000	835.802861
0.742000	835.166747
0.743000	835.648438
0.744000	835.171766
0.745000	834.855216
0.746000	834.375199
0.747000	833.095102
0.748000	834.368672
0.749000	833.411320
0.750000	833.892679
0.751000	834.368506
0.752000	835.169927
0.753000	834.689578
0.754000	834.050781
0.755000	834.052619
0.756000	833.571773
0.757000	834.371853
0.758000	834.686564
0.759000	835.963314
0.760000	836.442653
0.761000	836.445337
0.762000	837.234201
0.763000	838.348329
0.764000	837.708190
0.765000	837.716224
0.766000	838.986448
0.767000	839.152418
0.768000	838.992809
0.769000	839.629089
0.770000	841.381667
0.771000	841.384682
0.772000	842.022635
0.773000	841.057083
0.774000	841.862016
0.775000	842.330985
0.776000	844.249714
0.777000	842.817861
0.778000	842.971953
0.779000	842.494618
0.780000	843.612755
0.781000	843.617277
0.782000	844.566264
0.783000	841.699890
0.784000	843.456492
0.785000	843.930978
0.786000	843.293356
0.787000	844.095622
0.788000	843.935169
0.789000	844.247362
0.790000	842.502652
0.791000	843.615438
0.792000	842.500648
0.793000	842.659428
0.794000	842.348063
0.795000	842.822051
0.796000	842.664447
0.797000	841.540613
0.798000	841.383853
0.799000	841.863358
0.800000	841.230258
0.801000	842.506180
0.802000	840.752758
0.803000	840.590632
0.804000	840.115302
0.805000	840.591808
0.806000	840.593646
0.807000	839.003360
0.808000	839.325940
0.809000	839.805957
0.810000	838.852117
0.811000	839.960547
0.812000	837.573362
0.813000	839.643334
0.814000	837.253963
0.815000	837.889414
0.816000	837.251114
0.817000	837.096193
0.818000	837.895610
0.819000	836.302640
0.820000	835.178640
0.821000	834.701471
0.822000	836.306152
0.823000	836.623712
0.824000	835.666360
0.825000	835.185167
0.826000	835.350142
0.827000	835.664687
0.828000	835.984252
0.829000	836.781317
0.830000	835.028904
0.831000	836.463425
0.832000	836.307494
0.833000	837.579557
0.834000	838.218686
0.835000	838.694679
0.836000	837.897449
0.837000	838.851289
0.838000	838.217510
0.839000	839.335315
0.840000	839.495769
0.841000	839.331803
0.842000	839.335481
0.843000	840.608720
0.844000	841.247849
0.845000	842.518571
0.846000	840.446262
0.847000	841.718657
0.848000	842.518736
0.849000	841.405288
0.850000	843.798668
0.851000	844.275173
0.852000	845.552753
0.853000	844.590879
0.854000	845.872317
0.855000	844.751498
0.856000	845.708518
0.857000	846.188370
0.858000	845.865625
0.859000	846.506261
0.860000	847.463779
0.861000	847.144049
0.862000	848.739188
0.863000	848.738857
0.864000	849.214187
0.865000	847.303160
0.866000	848.268547
0.867000	847.300146
0.868000	849.217367
0.869000	848.577394
0.870000	849.533073
0.871000	848.417785
0.872000	848.580077
0.873000	848.581750
0.874000	847.146219
0.875000	849.376976
0.876000	848.732993
0.877000	849.693029
0.878000	849.376976
0.879000	849.534414
0.880000	849.688506
0.881000	850.178397
0.882000	851.125876
0.883000	849.857159
0.884000	850.971784
0.885000	850.806477
0.886000	851.607235
0.887000	849.537761
0.888000	850.493108
0.889000	851.445441
0.890000	850.331313
0.891000	850.973126
0.892000	851.614094
0.893000	851.134407
0.894000	850.809658
0.895000	851.291514
0.896000	849.537595
0.897000	849.375303
0.898000	850.491766
0.899000	850.013935
0.900000	850.012925
0.901000	850.976472
0.902000	850.012593
0.903000	849.540610
0.904000	849.219538
0.905000	849.542117
0.906000	848.581584
0.907000	850.015774
0.908000	848.422639
0.909000	848.582247
0.910000	848.109601
0.911000	848.584599
0.912000	849.383005
0.913000	848.900817
0.914000	848.263527
0.915000	847.472145
0.916000	849.704243
0.917000	848.748233
0.918000	849.223728
0.919000	848.744721
0.920000	848.427161
0.921000	849.064783
0.922000	849.695712
0.923000	848.905671
0.924000	849.545297
0.925000	848.584433
0.926000	848.588956
0.927000	848.428502
0.928000	849.544469
0.929000	849.866204
0.930000	850.017447
0.931000	848.743545
0.932000	849.703249
0.933000	850.981507
0.934000	851.139608
0.935000	850.021803
0.936000	851.136428
0.937000	849.388025
0.938000	848.903998
0.939000	849.543459
0.940000	850.495626
0.941000	851.133082
0.942000	849.381830
0.943000	849.383337
0.944000	850.661761
0.945000	850.656576
0.946000	850.977813
0.947000	851.141944
0.948000	851.772542
0.949000	852.249876
0.950000	852.576133
0.951000	854.003133
0.952000	853.051463
0.953000	854.165591
0.954000	854.321522
0.955000	853.845363
0.956000	855.283562
0.957000	855.280547
0.958000	855.919344
0.959000	855.281044
0.960000	856.391494
0.961000	857.347670
0.962000	856.718580
0.963000	856.725951
0.964000	857.832873
0.965000	858.783864
0.966000	857.672585
0.967000	858.949170
0.968000	859.743568
0.969000	859.586626
0.970000	860.542968
0.971000	859.903176
0.972000	860.696397
0.973000	859.737870
0.974000	860.695222
0.975000	860.532598
0.976000	861.814037
0.977000	861.334351
0.978000	860.852660
0.979000	861.652739
0.980000	862.764862
0.981000	861.812861
0.982000	861.971475
0.983000	862.767364
0.984000	861.811354
0.985000	862.927817
0.986000	862.926475
0.987000	863.244035
0.988000	862.770047
0.989000	864.355977
0.990000	862.768706
0.991000	862.921456
0.992000	863.883496
0.993000	863.883496
0.994000	863.084758
0.995000	862.768208
0.996000	861.335527
0.997000	861.175239
0.998000	862.132094
0.999000	861.491458
1.000000	861.807842
1.001000	861.338541
1.002000	861.338541
1.003000	860.859865
1.004000	860.058444
1.005000	860.538628
1.006000	861.495814
1.007000	859.425842
1.008000	860.379516
1.009000	859.105780
1.010000	858.948342
1.011000	859.262043
1.012000	857.352689
1.013000	857.988472
1.014000	858.148925
1.015000	858.148097
1.016000	856.400870
1.017000	855.599780
1.018000	856.400870
1.019000	854.804720
1.020000	855.755711
1.021000	854.640092
1.022000	853.685407
1.023000	853.840510
1.024000	852.889850
1.025000	854.009825
1.026000	853.368858
1.027000	851.295208
1.028000	852.247872
1.029000	852.247375
1.030000	852.729728
1.031000	850.174222
1.032000	850.814859
1.033000	850.980165
1.034000	850.178910
1.035000	850.815190
1.036000	851.460680
1.037000	853.052639
1.038000	851.453143
1.039000	851.130398
1.040000	850.972463
1.041000	853.044937
1.042000	853.690095
1.043000	852.728387
1.044000	852.566261
1.045000	853.042932
1.046000	853.360989
1.047000	852.727377
1.048000	853.046610
1.049000	852.721529
1.050000	853.841504
1.051000	853.357643
1.052000	853.046112
1.053000	852.092438
1.054000	853.041756
1.055000	852.726051
1.056000	852.570285
1.057000	851.451139
1.058000	853.198697
1.059000	852.084238
1.060000	851.443105
1.061000	852.880972
1.062000	853.834812
1.063000	853.836485
1.064000	854.314829
1.065000	855.108216
1.066000	854.314151
1.067000	853.200536
1.068000	853.677705
1.069000	853.838821
1.070000	855.590404
1.071000	854.156878
1.072000	855.749350
1.073000	853.197190
1.074000	855.273507
1.075000	855.106875
1.076000	854.469584
1.077000	855.749516
1.078000	855.266483
1.079000	857.179514
1.080000	857.022407
1.081000	855.899749
1.082000	856.223835
1.083000	856.381108
1.084000	856.703853
1.085000	855.745159
1.086000	855.430448
1.087000	855.578511
1.088000	855.907286
1.089000	856.705858
1.090000	856.065055
1.091000	855.427102
1.092000	853.993079
1.093000	854.154873
1.094000	854.628862
1.095000	853.830952
1.096000	852.874942
1.097000	854.468077
1.098000	852.875108
1.099000	851.759820
1.100000	851.280134
1.101000	850.969448
1.102000	850.807322
1.103000	849.687843
1.104000	849.688175
1.105000	849.694204
1.106000	848.576399
1.107000	848.891955
1.108000	847.777827
1.109000	847.936939
1.110000	846.822314
1.111000	846.030600
1.112000	845.705851
1.113000	845.551758
1.114000	843.953273
1.115000	843.796332
1.116000	844.906268
1.117000	843.309621
1.118000	842.194831
1.119000	842.674004
1.120000	842.514893
1.121000	842.837638
1.122000	841.400268
1.123000	842.196504
1.124000	841.715642
1.125000	843.463879
1.126000	842.031529
1.127000	842.353430
1.128000	843.306938
1.129000	843.785946
1.130000	843.939706
1.131000	843.144812
1.132000	844.579001
1.133000	843.941711
1.134000	844.581006
1.135000	845.534846
1.136000	846.015029
1.137000	846.335257
1.138000	845.689767
1.139000	846.011170
1.140000	846.802884
1.141000	846.168443
1.142000	846.329227
1.143000	845.848381
1.144000	846.804226
1.145000	846.007824
1.146000	847.282570
1.147000	846.486334
1.148000	846.482144
1.149000	847.602963
1.150000	847.761412
1.151000	847.124122
1.152000	847.604139
1.153000	846.966683
1.154000	847.122449
1.155000	846.969864
1.156000	846.966849
1.157000	847.614178
1.158000	846.169106
1.159000	846.011004
1.160000	846.330735
1.161000	847.926206
1.162000	846.812425
1.163000	846.968191
1.164000	847.283565
1.165000	847.920523
1.166000	847.444018
1.167000	846.650465
1.168000	846.171126
1.169000	846.652304
1.170000	847.126126
1.171000	848.085996
1.172000	847.925543
1.173000	848.084488
1.174000	847.286248
1.175000	848.879549
1.176000	847.607154
1.177000	849.362747
1.178000	848.722276
1.179000	849.040499
1.180000	850.151612
1.181000	851.431709
1.182000	850.321772
1.183000	849.197606
1.184000	849.359898
1.185000	849.519009
1.186000	851.432206
1.187000	850.957042
1.188000	851.584459
1.189000	851.746585
1.190000	851.750097
1.191000	852.541480
1.192000	851.747414
1.193000	852.385201
1.194000	851.741732
1.195000	853.822074
1.196000	852.229105
1.197000	853.814206
1.198000	852.704435
1.199000	853.976829
1.200000	853.338876
1.201000	854.296394
1.202000	855.085093
1.203000	854.610094
1.204000	855.565773
1.205000	854.924474
1.206000	854.765362
1.207000	855.887177
1.208000	855.246706
1.209000	856.834490
1.210000	856.361496
1.211000	855.551710
1.212000	857.470770
1.213000	856.990918
1.214000	856.835153
1.215000	857.311990
1.216000	857.940236
1.217000	860.020081
1.218000	859.854775
1.219000	859.381615
1.220000	859.379942
1.221000	861.606342
1.222000	861.447397
1.223000	861.768800
1.224000	862.088696
1.225000	864.472369
1.226000	863.998381
1.227000	863.992020
1.228000	864.951211
1.229000	864.626958
1.230000	864.313755
1.231000	867.652444
1.232000	866.530282
1.233000	867.810048
1.234000	867.492322
1.235000	868.927008
1.236000	870.043306
1.237000	869.720395
1.238000	869.720561
1.239000	872.271214
1.240000	873.386170
1.241000	872.900636
1.242000	874.977963
1.243000	875.612736
1.244000	876.564571
1.245000	877.524425
1.246000	877.838473
1.247000	878.163554
1.248000	878.629343
1.249000	880.546051
1.250000	881.504579
1.251000	881.982079
1.252000	883.577219
1.253000	884.686990
1.254000	885.962565
1.255000	886.279446
1.256000	887.400598
1.257000	887.236633
1.258000	890.585194
1.259000	890.422902
1.260000	890.738276
1.261000	893.290436
1.262000	892.968189
1.263000	895.679129
1.264000	895.839250
1.265000	896.627105
1.266000	898.229947
1.267000	899.972652
1.268000	900.933019
1.269000	903.002312
1.270000	903.799874
1.271000	905.074455
1.272000	907.139226
1.273000	906.661726
1.274000	910.010619
1.275000	909.842629
1.276000	911.442457
1.277000	913.670530
1.278000	913.988421
1.279000	917.330109
1.280000	918.770825
1.281000	919.239794
1.282000	921.792286
1.283000	923.700297
1.284000	925.772440
1.285000	928.477682
1.286000	928.951836
1.287000	931.822550
1.288000	934.530475
1.289000	937.558297
1.290000	939.309202
1.291000	940.420133
1.292000	945.039582
1.293000	947.429781
1.294000	950.772645
1.295000	950.930083
1.296000	955.549532
1.297000	959.691134
1.298000	962.709580
1.299000	964.304553
1.300000	967.805866
1.301000	971.314865
1.302000	974.978138
1.303000	978.321333
1.304000	982.144214
1.305000	985.169187
1.306000	990.425247
1.307000	994.726639
1.308000	997.911733
1.309000	1002.850233
1.310000	1007.466170
1.311000	1013.198737
1.312000	1018.618928
1.313000	1023.074412
1.314000	1025.779654
1.315000	1031.839306
1.316000	1038.528892
1.317000	1043.300082
1.318000	1048.077135
1.319000	1054.444639
1.320000	1059.385326
1.321000	1065.281676
1.322000	1073.405452
1.323000	1079.937932
1.324000	1084.549678
1.325000	1093.471181
1.326000	1098.884846
1.327000	1105.104785
1.328000	1110.837020
1.329000	1117.995063
1.330000	1125.167003
1.331000	1133.122623
1.332000	1141.091463
1.333000	1149.058463
1.334000	1155.428138
1.335000	1164.816275
1.336000	1172.150176
1.337000	1180.269082
1.338000	1189.673453
1.339000	1195.401994
1.340000	1204.796657
1.341000	1212.278620
1.342000	1222.314749
1.343000	1230.756913
1.344000	1237.609455
1.345000	1246.681373
1.346000	1253.532242
1.347000	1261.660524
1.348000	1268.350276
1.349000	1277.585828
1.350000	1286.191958
1.351000	1293.357371
1.352000	1300.689599
1.353000	1307.855344
1.354000	1314.233069
1.355000	1322.199904
1.356000	1328.891164
1.357000	1337.187271
1.358000	1343.394669
1.359000	1350.569624
1.360000	1355.185396
1.361000	1364.757590
1.362000	1370.334060
1.363000	1377.989198
1.364000	1383.086992
1.365000	1389.944734
1.366000	1395.201142
1.367000	1403.493405
1.368000	1410.990940
1.369000	1417.685380
1.370000	1423.905169
1.371000	1431.555123
1.372000	1439.687611
1.373000	1445.107818
1.374000	1453.242809
1.375000	1460.900796
1.376000	1468.068893
1.377000	1476.042436
1.378000	1484.177127
1.379000	1491.991724
1.380000	1499.482566
1.381000	1507.777678
1.382000	1515.584738
1.383000	1523.883197
1.384000	1531.377732
1.385000	1539.192827
1.386000	1547.807006
1.387000	1555.457639
1.388000	1563.751409
1.389000	1570.446528
1.390000	1577.791825
1.391000	1586.399809
1.392000	1594.699775
1.393000	1602.036706
1.394000	1609.532402
1.395000	1617.029621
1.396000	1623.891388
1.397000	1632.502719
1.398000	1638.574279
1.399000	1645.751255
1.400000	1653.579916
1.401000	1659.323547
1.402000	1666.031388
1.403000	1672.892658
1.404000	1678.962545
1.405000	1684.874995
1.406000	1690.944883
1.407000	1697.333672
1.408000	1704.208161
1.409000	1710.601638
1.410000	1716.032065
1.411000	1721.315093
1.412000	1727.384318
1.413000	1734.102545
1.414000	1739.539001
1.415000	1745.139754
1.416000	1751.059409
1.417000	1756.017024
1.418000	1761.781411
1.419000	1767.858172
1.420000	1771.067053
1.421000	1776.674680
1.422000	1781.793245
1.423000	1787.074449
1.424000	1791.882991
1.425000	1797.802449
1.426000	1800.697795
1.427000	1804.393054
1.428000	1807.439477
1.429000	1812.088244
1.430000	1815.942118
1.431000	1819.789630
1.432000	1824.435549
1.433000	1827.492523
1.434000	1831.498650
1.435000	1835.352854
1.436000	1838.891685
1.437000	1844.502659
1.438000	1848.512131
1.439000	1850.769855
1.440000	1856.696881
1.441000	1859.750178
1.442000	1865.043425
1.443000	1870.811340
1.444000	1874.507277
1.445000	1876.293862
1.446000	1877.121421
1.447000	1880.016601
1.448000	1881.803351
1.449000	1886.933146
1.450000	1888.405517
1.451000	1889.708738
1.452000	1890.698921
1.453000	1891.674542
1.454000	1894.422835
1.455000	1896.683574
1.456000	1897.675595
1.457000	1899.141108
1.458000	1899.964311
1.459000	1900.468446
1.460000	1901.139230
1.461000	1900.527913
1.462000	1904.058197
1.463000	1906.157306
1.464000	1904.909029
1.465000	1907.965325
1.466000	1907.032257
1.467000	1908.332794
1.468000	1909.793950
1.469000	1911.736118
1.470000	1913.196943
1.471000	1913.217549
1.472000	1914.682217
1.473000	1914.546214
1.474000	1916.804782
1.475000	1917.947533
1.476000	1919.253753
1.477000	1919.749523
1.478000	1920.411776
1.479000	1921.871077
1.480000	1922.372033
1.481000	1922.874992
1.482000	1923.376445
1.483000	1923.546952
1.484000	1925.171395
1.485000	1926.148011
1.486000	1926.961160
1.487000	1927.775981
1.488000	1929.701418
1.489000	1930.367002
1.490000	1935.644844
1.491000	1936.772538
1.492000	1938.223639
1.493000	1939.201763
1.494000	1940.644831
1.495000	1941.613745
1.496000	1941.624296
1.497000	1943.233847
1.498000	1942.752835
1.499000	1943.884206
1.500000	1943.412222
1.501000	1943.893582
1.502000	1942.630232
1.503000	1940.562777
1.504000	1938.651766
1.505000	1938.656620
1.506000	1936.425366
1.507000	1933.883923
1.508000	1930.696825
1.509000	1928.947427
1.510000	1925.758821
1.511000	1922.901492
1.512000	1919.391482
1.513000	1915.880297
1.514000	1912.055577
1.515000	1908.229349
1.516000	1902.327120
1.517000	1899.138680
1.518000	1891.964056
1.519000	1885.418523
1.520000	1880.153915
1.521000	1873.623109
1.522000	1865.481591
1.523000	1857.667673
1.524000	1850.962515
1.525000	1842.673432
1.526000	1833.255827
1.527000	1822.721261
1.528000	1810.596907
1.529000	1800.544363
1.530000	1789.374346
1.531000	1775.799900
1.532000	1763.354473
1.533000	1748.993333
1.534000	1733.351085
1.535000	1717.544887
1.536000	1701.901464
1.537000	1684.660564
1.538000	1666.944335
1.539000	1647.787555
1.540000	1629.104764
1.541000	1606.119571
1.542000	1586.958767
1.543000	1564.129007
1.544000	1540.821898
1.545000	1516.235054
1.546000	1491.000353
1.547000	1463.217848
1.548000	1435.911502
1.549000	1405.739957
1.550000	1376.518062
1.551000	1343.453043
1.552000	1306.888700
1.553000	1270.959311
1.554000	1234.717216
1.555000	1196.870109
1.556000	1156.151427
1.557000	1110.168650
1.558000	1062.265471
1.559000	1012.285959
1.560000	968.044878
1.561000	923.333154
1.562000	873.208760
1.563000	818.452526
1.564000	762.590034
1.565000	712.164665
1.566000	665.079141
1.567000	618.968229
1.568000	573.190598
1.569000	527.245813
1.570000	486.728781
1.571000	451.803954
1.572000	417.834641
1.573000	382.258129
1.574000	347.172683
1.575000	312.423565
1.576000	282.437768
1.577000	257.094195
1.578000	231.586177
1.579000	209.100281
1.580000	184.872009
1.581000	165.915884
1.582000	150.781450
1.583000	138.528277
1.584000	127.397089
1.585000	115.799599
1.586000	104.519156
1.587000	98.814520
1.588000	95.334114
1.589000	95.827350
1.590000	94.234563
1.591000	89.600900
1.592000	81.621873
1.593000	70.439678
1.594000	64.189291
1.595000	63.378013
1.596000	64.972656
1.597000	69.597621
1.598000	75.352268
1.599000	78.237030
1.600000	79.053162
1.601000	81.931398
1.602000	84.329797
1.603000	84.496943
1.604000	83.368768
1.605000	80.012187
1.606000	78.565458
1.607000	73.929609
1.608000	73.447603
1.609000	72.958722
1.610000	71.998853
1.611000	74.560389
1.612000	76.481604
1.613000	78.888037
1.614000	79.369381
1.615000	83.515670
1.616000	81.280391
1.617000	80.814106
1.618000	80.000807
1.619000	78.240708
1.620000	75.209706
1.621000	74.568075
1.622000	75.839475
1.623000	76.000591
1.624000	76.639886
1.625000	77.443478
1.626000	77.767051
1.627000	79.049319
1.628000	79.686775
1.629000	80.165617
1.630000	79.683429
1.631000	78.088123
1.632000	77.920646
1.633000	76.323999
1.634000	75.999084
1.635000	76.160200
1.636000	76.487965
1.637000	76.643564
1.638000	77.913788
1.639000	78.248245
1.640000	77.292732
1.641000	78.406181
1.642000	78.081762
1.643000	78.399488
1.644000	77.603086
1.645000	76.963792
1.646000	77.441970
1.647000	75.845489
1.648000	76.486291
1.649000	76.966641
1.650000	77.919470
1.651000	77.284532
1.652000	76.647739
1.653000	78.402669
1.654000	77.607609
1.655000	78.076246
1.656000	76.970153
1.657000	77.766886
1.658000	77.281517
1.659000	77.760028
1.660000	76.801168
1.661000	77.597238
1.662000	76.165220
1.663000	77.761701
1.664000	76.963460
1.665000	77.605935
1.666000	77.127425
1.667000	77.602921
1.668000	78.397649
1.669000	77.125586
1.670000	77.281517
1.671000	76.639886
1.672000	77.123913
1.673000	76.640881
1.674000	77.279513
1.675000	77.287547
1.676000	78.237196
1.677000	77.922485
1.678000	77.443975
1.679000	76.961124
1.680000	77.122572
1.681000	76.646910
1.682000	77.917134
1.683000	78.079758
1.684000	77.125255
1.685000	78.235192
1.686000	77.599740
1.687000	77.758023
1.688000	77.281683
1.689000	76.641891
1.690000	76.483111
1.691000	77.761535
1.692000	77.918310
1.693000	76.641891
1.694000	77.441970
1.695000	76.646910
1.696000	77.115548
1.697000	77.119060
1.698000	77.122240
1.699000	76.483111
1.700000	78.394469
1.701000	78.237528
1.702000	76.645569
1.703000	77.597073
1.704000	77.277508
1.705000	75.523589
1.706000	76.163878
1.707000	77.113709
1.708000	76.963626
1.709000	76.801168
1.710000	78.550400
1.711000	77.766057
1.712000	77.919818
1.713000	77.596228
1.714000	77.274659
1.715000	77.600419
1.716000	76.486623
1.717000	77.276001
1.718000	76.804514
1.719000	76.808026
1.720000	77.754677
1.721000	77.915461
1.722000	78.077919
1.723000	77.758686
1.724000	77.435444
1.725000	76.323834
1.726000	77.120401
1.727000	76.324331
1.728000	77.760028
1.729000	76.323999
1.730000	77.278005
1.731000	76.965978
1.732000	76.484784
1.733000	76.804680
1.734000	77.597404
1.735000	77.600419
1.736000	77.439966
1.737000	77.915627
1.738000	77.122572
1.739000	77.125421
1.740000	76.799495
1.741000	77.917466
1.742000	76.320653
1.743000	76.320985
1.744000	77.437961
1.745000	76.477926
1.746000	77.435278
1.747000	78.074407
1.748000	75.998074
1.749000	77.282527
1.750000	78.871140
1.751000	77.279347
1.752000	77.274493
1.753000	79.505581
1.754000	78.400664
1.755000	76.481272
1.756000	77.278337
1.757000	77.281186
1.758000	76.318649
1.759000	77.755174
1.760000	78.715209
1.761000	77.595897
1.762000	76.804349
1.763000	77.116724
1.764000	76.959782
1.765000	76.327346
1.766000	77.754842
1.767000	77.436620
1.768000	77.122240
1.769000	78.551244
1.770000	77.597404
1.771000	77.915461
1.772000	77.590877
1.773000	75.999913
1.774000	76.640052
1.775000	76.801002
1.776000	77.120567
1.777000	76.962963
1.778000	77.438293
1.779000	77.122240
1.780000	77.440132
1.781000	78.392630
1.782000	76.959451
1.783000	76.958275
1.784000	76.802841
1.785000	77.753335
1.786000	77.918310
1.787000	77.596062
1.788000	76.481106
1.789000	76.961124
1.790000	76.484287
1.791000	76.484618
1.792000	78.238538
1.793000	76.959948
1.794000	76.641228
1.795000	76.634867
1.796000	77.757857
1.797000	77.756350
1.798000	77.590877
1.799000	76.959782
1.800000	77.278005
1.801000	77.117718
1.802000	76.643564
1.803000	76.639389
1.804000	76.960445
1.805000	76.959782
1.806000	77.599409
1.807000	77.436620
1.808000	77.125255
1.809000	77.436620
1.810000	77.599077
1.811000	77.758023
1.812000	76.959617
1.813000	75.997908
1.814000	76.959285
1.815000	77.594224
1.816000	77.437283
1.817000	77.753004
1.818000	78.076412
1.819000	77.595565
1.820000	78.390625
1.821000	77.436122
1.822000	77.438624
1.823000	76.959782
1.824000	75.844826
1.825000	76.804349
1.826000	77.759696
1.827000	77.120401
1.828000	76.800837
1.829000	77.437117
1.830000	76.008957
1.831000	76.960280
1.832000	75.846168
1.833000	77.757857
1.834000	76.961621
1.835000	78.238206
1.836000	77.596228
1.837000	75.845158
1.838000	76.798832
1.839000	77.274328
1.840000	78.557937
1.841000	76.317473
1.842000	77.763208
1.843000	75.840470
1.844000	77.756018
1.845000	77.436288
1.846000	75.686378
1.847000	76.482614
1.848000	75.682700
1.849000	77.438458
1.850000	76.636872
1.851000	77.122074
1.852000	76.639886
1.853000	76.644906
1.854000	76.640218
1.855000	76.633857
1.856000	77.115216
1.857000	78.076080
1.858000	75.997245
1.859000	76.961290
1.860000	76.638876
1.861000	77.120401
1.862000	77.915130
1.863000	77.756516
1.864000	76.955607
1.865000	76.640218
1.866000	75.369994
1.867000	77.117055
1.868000	78.554590
1.869000	76.641725
1.870000	77.754677
1.871000	76.321829
1.872000	77.281020
1.873000	77.276845
1.874000	76.322326
1.875000	77.441142
1.876000	77.121577
1.877000	78.077422
1.878000	77.281186
1.879000	77.597570
1.880000	77.595897
1.881000	77.436620
1.882000	77.915130
1.883000	76.954763
1.884000	77.915461
1.885000	76.959285
1.886000	76.635364
1.887000	78.076412
1.888000	76.486291
1.889000	77.435278
1.890000	77.284366
1.891000	77.754345
1.892000	76.800505
1.893000	77.439634
1.894000	78.393640
1.895000	75.844992
1.896000	77.754345
1.897000	77.595731
1.898000	76.798335
1.899000	76.325507
1.900000	77.279513
1.901000	75.845158
1.902000	77.759033
1.903000	76.958275
1.904000	77.433439
1.905000	77.118562
1.906000	76.958606
1.907000	77.598911
1.908000	76.156522
1.909000	78.075749
1.910000	77.272323
1.911000	77.759696
1.912000	77.438127
1.913000	76.007118
1.914000	76.636706
1.915000	77.120070
1.916000	76.964802
1.917000	76.961455
1.918000	78.072734
1.919000	76.318649
1.920000	77.440132
1.921000	76.479599
1.922000	77.118728
1.923000	75.846499
1.924000	76.798998
1.925000	76.797325
1.926000	77.759199
1.927000	76.480609
1.928000	77.600253
1.929000	76.641891
1.930000	76.961290
1.931000	76.954432
1.932000	76.794476
1.933000	76.957944
1.934000	77.116889
1.935000	77.435112
1.936000	76.800339
1.937000	77.918642
1.938000	78.075749
1.939000	77.436951
1.940000	77.756516
1.941000	78.559278
1.942000	77.121909
1.943000	77.753335
1.944000	77.921822
1.945000	77.121743
1.946000	76.638876
1.947000	77.592219
1.948000	77.595068
1.949000	77.436454
1.950000	77.597570
1.951000	77.274659
1.952000	77.597404
1.953000	78.395147
1.954000	78.074076
1.955000	77.916637
1.956000	78.546722
1.957000	77.117552
1.958000	77.913788
1.959000	77.434946
1.960000	77.759033
1.961000	77.436951
1.962000	77.280523
1.963000	77.276166
1.964000	78.074076
1.965000	78.074573
1.966000	77.754180
1.967000	77.436454
1.968000	76.639223
1.969000	77.916803
1.970000	78.069388
1.971000	78.235026
1.972000	77.434946
1.973000	76.639721
1.974000	78.071227
1.975000	77.434781
1.976000	77.753501
1.977000	77.277508
1.978000	78.071061
1.979000	78.074407
1.980000	77.276001
1.981000	77.597570
1.982000	78.073065
1.983000	78.234860
1.984000	77.909266
1.985000	79.188700
1.986000	78.385938
1.987000	77.598746
1.988000	76.961124
1.989000	79.190705
1.990000	78.231514
1.991000	79.189876
1.992000	77.118728
1.993000	76.959782
1.994000	76.641228
1.995000	78.232690
1.996000	78.078085
1.997000	76.474414
1.998000	77.117221
1.999000	78.233684
2.000000	77.756516
2.001000	77.271313
2.002000	77.592219
2.003000	78.713205
2.004000	76.164557
2.005000	77.115382
2.006000	76.960958
2.007000	76.959285
2.008000	77.277342
2.009000	78.079261
2.010000	78.230172
2.011000	78.394303
2.012000	77.590877
2.013000	77.758023
2.014000	77.118894
2.015000	78.387611
2.016000	77.439634
2.017000	77.920646
2.018000	79.031759
2.019000	77.279347
2.020000	76.799164
2.021000	77.751662
2.022000	77.753004
2.023000	77.597404
2.024000	78.709527
2.025000	76.640218
2.026000	77.595565
2.027000	78.073910
2.028000	77.594224
2.029000	77.597073
2.030000	78.715209
2.031000	77.433108
2.032000	77.916969
2.033000	77.757857
2.034000	76.792637
2.035000	78.073910
2.036000	77.115382
2.037000	76.642901
2.038000	76.960793
2.039000	77.757691
2.040000	77.593892
2.041000	78.075749
2.042000	76.479433
2.043000	75.051274
2.044000	77.757526
2.045000	77.282362
2.046000	77.115382
2.047000	76.481106
2.048000	78.234860
2.049000	76.964636
2.050000	77.436288
2.051000	76.477263
2.052000	77.756516
2.053000	76.323337
2.054000	76.959617
2.055000	75.521915
2.056000	77.753169
2.057000	76.158693
2.058000	76.479268
2.059000	77.913457
2.060000	76.800671
2.061000	78.553249
2.062000	76.007118
2.063000	76.960793
2.064000	77.117221
2.065000	77.436454
2.066000	77.275669
2.067000	77.118562
2.068000	78.863785
2.069000	94.254111
2.070000	119.103374
2.071000	208.722836
2.072000	308.781230
2.073000	331.990044
2.074000	314.705967
2.075000	321.841880
2.076000	362.446271
2.077000	388.847739
2.078000	444.405496
2.079000	541.012675
2.080000	681.767140
2.081000	795.698659
2.082000	930.253743
2.083000	1172.444449
2.084000	1601.082168
2.085000	2111.728232
2.086000	2593.734574
2.087000	3031.947155
2.088000	3414.614795
2.089000	3613.484243
2.090000	3443.343381
2.091000	2895.420275
2.092000	2213.175538
2.093000	1708.261961
2.094000	1463.148043
2.095000	1332.015516
2.096000	1161.424808
2.097000	958.150250
2.098000	829.821647
2.099000	830.258101
2.100000	888.248999
2.101000	907.383996
2.102000	877.846380
2.103000	864.893953
2.104000	920.324326
2.105000	1014.949593
2.106000	1078.330053
2.107000	1089.585486
2.108000	1090.012249
2.109000	1124.570782
2.110000	1180.194288
2.111000	1210.823255
2.112000	1205.273603
2.113000	1197.018708
2.114000	1214.597789
2.115000	1254.163184
2.116000	1287.992650
2.117000	1301.885003
2.118000	1314.663742
2.119000	1351.652511
2.120000	1402.995050
2.121000	1444.763540
2.122000	1469.619905
2.123000	1487.458903
2.124000	1514.067664
2.125000	1543.220220
2.126000	1554.839429
2.127000	1547.969943
2.128000	1538.230074
2.129000	1542.526084
2.130000	1558.290075
2.131000	1584.408930
2.132000	1613.849711
2.133000	1660.315394
2.134000	1823.122285
2.135000	2086.627496
2.136000	2300.776848
2.137000	2483.952060
2.138000	2781.791326
2.139000	3199.595571
2.140000	3634.773398
2.141000	4006.162196
2.142000	4315.454868
2.143000	4637.469306
2.144000	4968.629762
2.145000	5251.263590
2.146000	5418.509704
2.147000	5460.252494
2.148000	5443.277179
2.149000	5429.820278
2.150000	5382.188554
2.151000	5264.796575
2.152000	5126.130170
2.153000	5006.153279
2.154000	4919.920589
2.155000	4850.044771
2.156000	4758.181599
2.157000	4645.353754
2.158000	4536.612566
2.159000	4425.822360
2.160000	4308.693304
2.161000	4175.255455
2.162000	4030.846948
2.163000	3882.171254
2.164000	3733.932615
2.165000	3587.309199
2.166000	3440.547940
2.167000	3294.858271
2.168000	3151.096540
2.169000	3018.960380
2.170000	2898.428520
2.171000	2784.578016
2.172000	2679.463931
2.173000	2586.586584
2.174000	2502.785148
2.175000	2431.534679
2.176000	2368.873806
2.177000	2309.711996
2.178000	2249.764652
2.179000	2179.280706
2.180000	2102.730882
2.181000	2036.366755
2.182000	1983.370557
2.183000	1941.051288
2.184000	1903.491300
2.185000	1867.668304
2.186000	1841.094741
2.187000	1819.760491
2.188000	1806.712128
2.189000	1797.164218
2.190000	1790.313515
2.191000	1789.500532
2.192000	1793.472123
2.193000	1800.618107
2.194000	1804.895018
2.195000	1808.851867
2.196000	1814.554254
2.197000	1820.894595
2.198000	1831.210386
2.199000	1842.154091
2.200000	1852.942016
2.201000	1866.913708
2.202000	1880.089994
2.203000	1895.334578
2.204000	1912.171453
2.205000	1932.990321
2.206000	1952.214381
2.207000	1970.960261
2.208000	1989.545539
2.209000	2004.787109
2.210000	2020.829602
2.211000	2032.252150
2.212000	2039.222228
2.213000	2045.557715
2.214000	2048.704430
2.215000	2051.073163
2.216000	2048.182159
2.217000	2044.340842
2.218000	2037.476904
2.219000	2038.418519
2.220000	2046.525398
2.221000	2048.901716
2.222000	2038.516902
2.223000	2022.089332
2.224000	2018.251077
2.225000	2023.495954
2.226000	2023.644893
2.227000	2008.336320
2.228000	1988.878262
2.229000	1970.717379
2.230000	1957.338916
2.231000	1943.149324
2.232000	1917.187742
2.233000	1890.902751
2.234000	1864.142763
2.235000	1841.210856
2.236000	1818.445417
2.237000	1790.411360
2.238000	1761.744204
2.239000	1732.777727
2.240000	1707.462313
2.241000	1680.087132
2.242000	1652.542635
2.243000	1623.737124
2.244000	1596.205680
2.245000	1566.446494
2.246000	1537.646847
2.247000	1507.401464
2.248000	1477.163105
2.249000	1445.016734
2.250000	1414.620606
2.251000	1384.382578
2.252000	1351.593732
2.253000	1321.835225
2.254000	1291.750280
2.255000	1258.960937
2.256000	1229.835530
2.257000	1199.912710
2.258000	1169.350265
2.259000	1141.491025
2.260000	1112.041697
2.261000	1083.386253
2.262000	1058.556042
2.263000	1030.374255
2.264000	1004.902563
2.265000	979.116326
2.266000	954.755415
2.267000	930.392650
2.268000	907.148535
2.269000	884.701484
2.270000	863.362697
2.271000	841.066723
2.272000	820.855614
2.273000	800.629447
2.274000	781.516050
2.275000	761.292219
2.276000	744.572028
2.277000	724.828380
2.278000	710.335608
2.279000	691.065783
2.280000	674.655955
2.281000	658.572896
2.282000	642.961309
2.283000	629.268450
2.284000	615.253510
2.285000	601.711894
2.286000	588.014514
2.287000	577.182994
2.288000	565.236533
2.289000	554.561789
2.290000	543.257607
2.291000	534.493723
2.292000	523.813115
2.293000	515.527228
2.294000	506.449794
2.295000	497.522939
2.296000	490.835701
2.297000	482.710930
2.298000	476.026544
2.299000	468.207441
2.300000	461.521382
2.301000	454.829293
2.302000	449.725983
2.303000	442.393092
2.304000	437.771141
2.305000	431.553207
2.306000	425.663202
2.307000	419.922436
2.308000	414.983936
2.309000	409.081872
2.310000	403.505916
2.311000	398.562049
2.312000	394.582573
2.313000	390.112197
2.314000	386.612889
2.315000	381.664169
2.316000	380.391277
2.317000	373.852436
2.318000	372.414569
2.319000	368.428054
2.320000	364.605670
2.321000	362.849414
2.322000	358.699763
2.323000	358.538316
2.324000	357.894167
2.325000	354.226719
2.326000	352.320381
2.327000	351.359683
2.328000	351.038611
2.329000	350.235019
2.330000	349.589695
2.331000	351.026567
2.332000	348.153501
2.333000	348.469222
2.334000	348.145136
2.335000	348.299062
2.336000	349.884494
2.337000	349.720198
2.338000	352.272524
2.339000	351.948105
2.340000	352.736639
2.341000	354.015063
2.342000	356.075659
2.343000	357.826067
2.344000	358.620961
2.345000	358.294191
2.346000	359.886829
2.347000	361.787635
2.348000	364.331927
2.349000	367.514503
2.350000	369.587987
2.351000	370.057619
2.352000	372.756169
2.353000	375.624879
2.354000	378.004527
2.355000	380.236956
2.356000	384.533147
2.357000	386.433456
2.358000	388.660188
2.359000	392.163339
2.360000	396.776924
2.361000	400.438011
2.362000	403.460466
2.363000	407.275645
2.364000	411.098361
2.365000	416.187110
2.366000	419.688075
2.367000	424.619883
2.368000	428.757807
2.369000	433.847219
2.370000	439.100943
2.371000	444.994957
2.372000	450.243481
2.373000	456.450367
2.374000	461.853661
2.375000	469.342980
2.376000	474.279145
2.377000	480.005516
2.378000	487.170251
2.379000	493.376971
2.380000	500.707344
2.381000	505.796425
2.382000	511.201392
2.383000	517.092060
2.384000	523.308818
2.385000	530.148788
2.386000	535.885198
2.387000	540.652710
2.388000	545.119392
2.389000	550.047025
2.390000	556.254408
2.391000	561.352533
2.392000	565.975494
2.393000	571.379286
2.394000	574.724486
2.395000	580.140999
2.396000	582.525169
2.397000	588.738914
2.398000	592.079607
2.399000	595.576729
2.400000	599.082050
2.401000	603.861273
2.402000	606.561330
2.403000	611.337208
2.404000	615.158747
2.405000	618.662230
2.406000	622.960938
2.407000	628.378628
2.408000	630.288810
2.409000	635.860923
2.410000	639.212152
2.411000	645.099308
2.412000	647.804550
2.413000	653.540297
2.414000	658.632226
2.415000	662.614716
2.416000	668.192859
2.417000	672.972414
2.418000	676.949553
2.419000	682.367574
2.420000	687.934336
2.421000	694.466469
2.422000	697.333340
2.423000	703.384295
2.424000	709.118700
2.425000	713.894080
2.426000	719.310759
2.427000	724.092997
2.428000	729.500980
2.429000	735.237721
2.430000	740.965930
2.431000	746.541390
2.432000	753.078392
2.433000	755.620332
2.434000	761.351556
2.435000	765.968819
2.436000	772.814171
2.437000	778.871653
2.438000	782.844767
2.439000	788.897561
2.440000	796.221920
2.441000	801.471288
2.442000	806.887802
2.443000	809.594054
2.444000	813.251795
2.445000	816.112143
2.446000	822.334434
2.447000	825.200129
2.448000	828.540657
2.449000	829.976353
2.450000	832.201925
2.451000	835.072805
2.452000	838.417855
2.453000	841.758880
2.454000	842.235054
2.455000	844.785044
2.456000	847.488613
2.457000	850.994282
2.458000	850.989759
2.459000	853.854792
2.460000	856.720155
2.461000	859.266965
2.462000	861.339438
2.463000	863.727302
2.464000	866.427690
2.465000	871.200900
2.466000	874.385828
2.467000	877.408299
2.468000	879.796825
2.469000	882.826320
2.470000	885.682971
2.471000	890.143308
2.472000	893.491523
2.473000	896.828704
2.474000	900.489460
2.475000	903.356496
2.476000	905.901120
2.477000	909.718982
2.478000	913.381741
2.479000	915.291426
2.480000	919.430194
2.481000	921.975149
2.482000	924.365515
2.483000	927.549598
2.484000	929.137548
2.485000	932.161013
2.486000	932.959088
2.487000	935.024538
2.488000	937.095007
2.489000	938.847254
2.490000	938.836205
2.491000	939.957522
2.492000	942.506999
2.493000	942.820202
2.494000	942.503321
2.495000	944.567761
2.496000	943.454644
2.497000	943.938339
2.498000	944.410157
2.499000	946.161227
2.500000	946.004965
2.501000	946.161393
2.502000	944.254723
2.503000	945.366167
2.504000	944.887491
2.505000	943.608570
2.506000	942.823880
2.507000	943.141109
2.508000	940.585271
2.509000	939.155935
2.510000	938.360544
2.511000	937.886555
2.512000	935.491999
2.513000	934.067186
2.514000	931.997893
2.515000	929.603005
2.516000	928.175011
2.517000	928.969574
2.518000	925.307146
2.519000	922.281329
2.520000	920.694389
2.521000	919.889290
2.522000	916.866157
2.523000	916.078965
2.524000	914.166266
2.525000	911.774393
2.526000	910.026669
2.527000	906.991989
2.528000	907.480372
2.529000	904.129806
2.530000	904.453727
2.531000	901.590368
2.532000	900.949068
2.533000	899.836283
2.534000	897.447756
2.535000	897.288479
2.536000	896.973934
2.537000	895.853958
2.538000	893.465432
2.539000	893.940927
2.540000	892.673386
2.541000	892.036428
2.542000	890.444137
2.543000	889.009782
2.544000	888.857529
2.545000	888.062634
2.546000	886.143570
2.547000	885.502275
2.548000	884.388309
2.549000	884.709219
2.550000	882.804384
2.551000	881.364000
2.552000	881.203215
2.553000	880.408321
2.554000	878.821215
2.555000	877.864029
2.556000	875.946807
2.557000	875.790545
2.558000	873.242228
2.559000	872.604606
2.560000	871.809712
2.561000	869.257221
2.562000	868.780383
2.563000	867.349043
2.564000	865.118949
2.565000	864.327914
2.566000	863.684097
2.567000	860.974499
2.568000	860.026854
2.569000	858.589484
2.570000	858.114320
2.571000	856.678292
2.572000	855.086333
2.573000	853.652641
2.574000	852.055829
2.575000	850.464367
2.576000	849.670814
2.577000	849.510195
2.578000	845.843742
2.579000	846.325930
2.580000	844.251104
2.581000	843.454371
2.582000	842.021855
2.583000	841.700120
2.584000	839.473207
2.585000	838.516020
2.586000	838.199802
2.587000	836.917700
2.588000	835.325063
2.589000	835.492043
2.590000	833.735440
2.591000	832.296397
2.592000	832.299743
2.593000	829.752271
2.594000	830.231279
2.595000	829.911714
2.596000	827.836888
2.597000	827.047179
2.598000	826.088320
2.599000	826.882204
2.600000	824.970680
2.601000	822.896020
2.602000	823.857050
2.603000	822.423026
2.604000	820.344855
2.605000	820.828716
2.606000	821.144603
2.607000	818.753890
2.608000	818.435833
2.609000	818.277384
2.610000	817.313837
2.611000	817.959493
2.612000	816.365016
2.613000	816.204895
2.614000	814.925129
2.615000	813.335672
2.616000	813.653232
2.617000	812.217369
2.618000	812.218695
2.619000	811.105578
2.620000	811.738678
2.621000	811.104402
2.622000	811.423288
2.623000	809.667695
2.624000	809.504062
2.625000	809.825465
2.626000	808.391442
2.627000	808.225125
2.628000	808.551216
2.629000	808.546694
2.630000	807.432898
2.631000	808.389919
2.632000	806.790423
2.633000	807.114162
2.634000	807.907881
2.635000	806.789065
2.636000	808.703604
2.637000	807.427682
2.638000	807.104274
2.639000	808.698569
2.640000	807.428842
2.641000	807.578578
2.642000	807.103248
2.643000	808.534754
2.644000	809.330311
2.645000	810.289170
2.646000	810.281965
2.647000	809.172857
2.648000	811.717149
2.649000	810.604197
2.650000	812.351921
2.651000	812.670973
2.652000	813.146634
2.653000	813.625973
2.654000	814.737749
2.655000	813.613749
2.656000	816.166572
2.657000	815.527774
2.658000	818.390289
2.659000	818.070724
2.660000	818.867955
2.661000	818.866447
2.662000	819.032748
2.663000	820.460908
2.664000	820.938077
2.665000	820.619175
2.666000	821.734297
2.667000	823.009540
2.668000	822.686117
2.669000	824.597475
2.670000	824.281090
2.671000	826.033503
2.672000	825.234252
2.673000	826.513173
2.674000	826.351047
2.675000	826.508651
2.676000	827.943835
2.677000	827.298344
2.678000	827.787059
2.679000	827.141901
2.680000	827.938800
2.681000	828.414129
2.682000	829.209521
2.683000	828.891629
2.684000	829.209852
2.685000	830.326813
2.686000	828.899482
2.687000	830.164008
2.688000	830.008243
2.689000	830.318598
2.690000	830.638328
2.691000	830.156803
2.692000	830.636142
2.693000	830.480045
2.694000	831.591821
2.695000	829.520507
2.696000	830.798931
2.697000	830.955193
2.698000	831.114968
2.699000	829.525013
2.700000	831.275918
2.701000	831.269889
2.702000	832.069471
2.703000	832.229411
2.704000	830.157600
2.705000	832.071128
2.706000	832.705901
2.707000	833.660570
2.708000	835.091578
2.709000	834.613400
2.710000	834.926438
2.711000	834.925427
2.712000	833.974934
2.713000	835.249001
2.714000	836.357431
2.715000	836.835096
2.716000	837.633668
2.717000	838.110837
2.718000	837.153982
2.719000	839.392939
2.720000	838.742429
2.721000	839.864244
2.722000	839.230134
2.723000	839.864741
2.724000	840.017329
2.725000	839.862227
2.726000	840.496834
2.727000	841.298421
2.728000	842.096149
2.729000	842.249744
2.730000	841.455181
2.731000	842.735609
2.732000	842.411854
2.733000	843.524640
2.734000	843.526644
2.735000	844.323212
2.736000	844.003979
2.737000	844.959658
2.738000	844.799205
2.739000	845.435650
2.740000	843.846359
2.741000	845.119764
2.742000	844.958300
2.743000	844.796174
2.744000	845.442161
2.745000	846.711210
2.746000	845.117909
2.747000	846.072412
2.748000	845.753345
2.749000	845.436795
2.750000	846.391132
2.751000	846.391132
2.752000	846.076753
2.753000	846.714374
2.754000	847.196728
2.755000	846.229503
2.756000	845.916797
2.757000	846.077250
2.758000	847.508424
2.759000	847.033758
2.760000	847.187684
2.761000	846.078410
2.762000	846.546037
2.763000	847.190186
2.764000	847.354814
2.765000	847.029567
2.766000	847.510579
2.767000	846.397628
2.768000	846.868767
2.769000	846.714675
2.770000	847.191014
2.771000	848.306468
2.772000	847.188663
2.773000	847.667339
2.774000	847.508724
2.775000	847.510066
2.776000	848.148019
2.777000	847.992586
2.778000	848.625354
2.779000	849.425599
2.780000	850.382951
2.781000	848.309964
2.782000	849.586549
2.783000	848.786636
2.784000	848.945913
2.785000	848.148169
2.786000	848.310130
2.787000	848.627011
2.788000	849.424920
2.789000	849.585539
2.790000	849.592231
2.791000	848.789469
2.792000	850.227170
2.793000	850.546735
2.794000	849.909113
2.795000	851.023737
2.796000	850.700661
2.797000	850.702997
2.798000	850.865123
2.799000	850.704007
2.800000	851.189541
2.801000	850.865620
2.802000	852.463443
2.803000	851.502579
2.804000	849.596738
2.805000	850.550909
2.806000	852.306171
2.807000	849.434280
2.808000	851.665037
2.809000	850.709855
2.810000	850.711875
2.811000	850.394150
2.812000	850.240058
2.813000	850.876006
2.814000	848.487977
2.815000	848.327192
2.816000	847.051949
2.817000	846.577961
2.818000	846.418849
2.819000	844.508999
2.820000	846.578639
2.821000	845.625131
2.822000	844.041537
2.823000	843.554662
2.824000	843.234268
2.825000	842.445901
2.826000	839.575518
2.827000	839.891902
2.828000	838.939072
2.829000	838.148368
2.830000	838.307645
2.831000	837.991095
2.832000	836.717857
2.833000	837.194859
2.834000	835.920792
2.835000	835.761349
2.836000	834.810524
2.837000	834.810358
2.838000	832.420987
2.839000	833.207350
2.840000	831.781692
2.841000	831.461133
2.842000	831.469830
2.843000	831.302022
2.844000	830.664731
2.845000	831.308383
2.846000	831.307207
2.847000	832.260881
2.848000	832.105447
2.849000	830.987476
2.850000	830.351362
2.851000	830.511152
2.852000	830.514498
2.853000	829.718594
2.854000	830.031466
2.855000	829.872189
2.856000	830.032973
2.857000	830.041173
2.858000	830.839248
2.859000	829.080806
2.860000	829.870350
2.861000	831.632469
2.862000	829.239586
2.863000	829.721277
2.864000	829.720267
2.865000	829.400205
2.866000	830.356729
2.867000	830.991667
2.868000	828.286591
2.869000	830.517679
2.870000	829.561503
2.871000	830.676790
2.872000	829.406235
2.873000	828.763594
2.874000	830.203134
2.875000	830.519186
2.876000	829.883238
2.877000	830.041007
2.878000	829.562497
2.879000	829.884579
2.880000	830.361416
2.881000	832.430544
2.882000	830.522698
2.883000	832.115999
2.884000	831.799781
2.885000	832.912566
2.886000	832.591494
2.887000	831.958395
2.888000	833.703270
2.889000	835.300927
2.890000	834.190146
2.891000	835.782286
2.892000	835.781276
2.893000	836.580180
2.894000	836.106026
2.895000	837.694639
2.896000	837.220816
2.897000	837.376416
2.898000	836.102514
2.899000	838.170813
2.900000	839.452749
2.901000	838.172486
2.902000	839.450744
2.903000	839.130682
2.904000	840.406589
2.905000	840.247477
2.906000	840.731339
2.907000	841.527409
2.908000	840.885944
2.909000	840.416296
2.910000	842.962940
2.911000	842.960769
2.912000	842.807174
2.913000	842.485605
2.914000	843.442792
2.915000	843.924648
2.916000	844.243550
2.917000	843.924482
2.918000	844.883010
2.919000	844.079750
2.920000	844.882844
2.921000	846.797880
2.922000	844.884020
2.923000	846.157922
2.924000	846.477155
2.925000	846.316039
2.926000	846.955334
2.927000	846.961695
2.928000	845.361868
2.929000	846.163289
2.930000	846.956013
2.931000	845.841388
2.932000	847.438879
2.933000	847.598157
2.934000	846.479854
2.935000	848.553338
2.936000	848.080692
2.937000	846.805448
2.938000	848.402261
2.939000	848.239638
2.940000	846.641483
2.941000	848.561885
2.942000	847.765318
2.943000	848.085545
2.944000	848.881284
2.945000	849.199176
2.946000	849.043245
2.947000	847.920254
2.948000	847.446764
2.949000	848.083044
2.950000	849.518077
2.951000	849.518077
2.952000	848.562233
2.953000	849.041074
2.954000	848.086737
2.955000	850.003114
2.956000	848.888324
2.957000	849.679706
2.958000	849.835637
2.959000	850.164577
2.960000	850.792326
2.961000	851.115071
2.962000	850.326372
2.963000	852.706533
2.964000	852.868825
2.965000	854.139381
2.966000	853.504774
2.967000	853.502769
2.968000	854.621071
2.969000	854.618901
2.970000	854.463467
2.971000	855.415966
2.972000	855.255016
2.973000	854.143571
2.974000	856.691888
2.975000	855.574249
2.976000	858.123062
2.977000	855.569229
2.978000	855.728009
2.979000	854.932105
2.980000	857.170896
2.981000	856.213378
2.982000	857.334363
2.983000	857.647567
2.984000	856.688376
2.985000	856.371826
2.986000	857.486617
2.987000	857.484944
2.988000	856.212715
2.989000	857.966303
2.990000	855.571747
2.991000	856.212881
2.992000	856.217237
2.993000	857.174257
2.994000	856.375520
2.995000	856.218744
2.996000	855.420338
2.997000	856.216905
2.998000	854.463152
2.999000	855.900024
3.000000	855.103291
3.001000	855.585147
3.002000	854.150627
3.003000	855.587996
3.004000	855.426880
3.005000	853.997711
3.006000	853.997711
3.007000	854.641693
3.008000	854.313929
3.009000	855.589172
3.010000	853.673971
3.011000	853.838102
3.012000	853.205831
3.013000	853.043720
3.014000	853.046735
3.015000	852.250333
3.016000	852.089217
3.017000	852.415474
3.018000	852.572913
3.019000	852.095578
3.020000	851.936467
3.021000	852.095578
3.022000	851.777024
3.023000	851.614069
3.024000	849.867671
3.025000	850.819672
3.026000	850.505971
3.027000	850.987662
3.028000	850.030310
3.029000	849.397542
3.030000	849.397376
3.031000	849.392522
3.032000	848.437522
3.033000	848.606838
3.034000	847.965870
3.035000	848.441034
3.036000	847.964197
3.037000	847.804588
3.038000	847.325912
3.039000	847.173327
3.040000	847.172830
3.041000	845.734963
3.042000	846.530189
3.043000	847.810286
3.044000	845.574842
3.045000	847.019417
3.046000	847.337142
3.047000	846.542248
3.048000	846.707555
3.049000	846.220679
3.050000	845.110576
3.051000	844.792354
3.052000	845.586569
3.053000	844.631403
3.054000	844.151054
3.055000	845.108572
3.056000	844.635760
3.057000	845.591770
3.058000	844.952641
3.059000	844.159088
3.060000	843.518120
3.061000	843.042625
3.062000	842.566963
3.063000	844.163279
3.064000	842.881343
3.065000	842.567974
3.066000	842.728261
3.067000	843.048488
3.068000	842.890884
3.069000	843.042806
3.070000	842.252600
3.071000	843.529682
3.072000	842.570823
3.073000	843.527180
3.074000	842.889724
3.075000	842.253941
3.076000	842.413384
3.077000	841.617495
3.078000	842.730944
3.079000	841.773426
3.080000	842.576355
3.081000	841.929026
3.082000	840.978035
3.083000	840.184814
3.084000	843.210465
3.085000	841.617164
3.086000	842.895919
3.087000	841.297931
3.088000	842.257469
3.089000	841.457887
3.090000	844.011057
3.091000	842.253278
3.092000	842.415404
3.093000	842.573853
3.094000	842.252450
3.095000	842.736145
3.096000	842.252615
3.097000	842.574863
3.098000	842.893086
3.099000	843.691327
3.100000	843.689654
3.101000	842.415917
3.102000	843.373104
3.103000	843.208476
3.104000	842.575708
3.105000	843.688991
3.106000	844.165828
3.107000	844.647353
3.108000	844.330803
3.109000	845.445925
3.110000	844.164320
3.111000	844.331134
3.112000	844.970595
3.113000	844.325618
3.114000	845.125697
3.115000	844.330803
3.116000	844.172023
3.117000	843.530061
3.118000	844.969269
3.119000	845.443092
3.120000	845.602369
3.121000	846.080713
3.122000	845.124703
3.123000	845.444433
3.124000	844.647866
3.125000	847.036226
3.126000	845.763335
3.127000	845.286995
3.128000	845.924617
3.129000	846.406307
3.130000	845.442760
3.131000	845.926290
3.132000	846.088582
3.133000	845.921949
3.134000	846.240338
3.135000	846.240338
3.136000	846.081226
3.137000	846.562917
3.138000	846.565766
3.139000	846.083910
3.140000	847.196861
3.141000	847.679728
3.142000	847.676713
3.143000	847.361836
3.144000	846.881653
3.145000	847.043779
3.146000	848.791338
3.147000	848.156896
3.148000	848.155223
3.149000	847.685757
3.150000	849.912323
3.151000	850.072113
3.152000	849.756392
3.153000	849.114761
3.154000	849.122630
3.155000	850.236078
3.156000	850.713760
3.157000	849.593437
3.158000	849.598804
3.159000	850.718448
3.160000	850.075807
3.161000	850.711258
3.162000	850.396713
3.163000	851.512348
3.164000	850.715780
3.165000	851.355407
3.166000	852.315276
3.167000	851.515363
3.168000	851.037862
3.169000	851.040877
3.170000	851.834430
3.171000	850.253520
3.172000	852.318970
3.173000	852.320477
3.174000	852.796138
3.175000	852.164380
3.176000	852.636364
3.177000	853.436112
3.178000	853.112870
3.179000	852.319151
3.180000	853.435283
3.181000	854.079266
3.182000	852.483961
3.183000	854.874160
3.184000	854.873829
3.185000	854.240232
3.186000	852.799847
3.187000	854.399675
3.188000	852.964491
3.189000	854.076267
3.190000	853.768927
3.191000	855.201443
3.192000	854.245433
3.193000	853.129135
3.194000	853.926200
3.195000	853.610660
3.196000	853.775801
3.197000	853.447705
3.198000	852.334919
3.199000	853.929230
3.200000	852.493533
3.201000	852.818962
3.202000	852.817454
3.203000	852.654997
3.204000	852.659022
3.205000	852.822821
3.206000	852.501915
3.207000	852.340964
3.208000	852.978420
3.209000	852.983108
3.210000	851.866313
3.211000	852.028108
3.212000	852.185878
3.213000	851.864143
3.214000	851.553457
3.215000	852.189571
3.216000	852.028621
3.217000	851.872359
3.218000	852.982627
3.219000	852.513658
3.220000	852.192933
3.221000	852.986652
3.222000	852.033656
3.223000	853.146110
3.224000	852.033656
3.225000	852.675800
3.226000	852.995033
3.227000	852.034003
3.228000	852.994701
3.229000	853.161516
3.230000	853.319285
3.231000	853.793108
3.232000	853.472549
3.233000	853.959093
3.234000	853.158004
3.235000	854.272297
3.236000	853.801655
3.237000	853.473062
3.238000	853.796138
3.239000	853.800660
3.240000	854.118883
3.241000	854.435102
3.242000	854.752496
3.243000	854.437785
3.244000	855.871477
3.245000	855.394971
3.246000	854.760033
3.247000	854.913793
3.248000	855.083622
3.249000	856.032940
3.250000	855.082793
3.251000	857.155102
3.252000	855.720747
3.253000	855.079779
3.254000	857.315058
3.255000	854.605791
3.256000	855.243247
3.257000	855.407890
3.258000	855.569851
3.259000	856.050034
3.260000	855.725119
3.261000	855.408569
3.262000	856.365258
3.263000	856.203132
3.264000	856.048708
3.265000	855.411252
3.266000	856.690852
3.267000	854.295799
3.268000	856.372298
3.269000	854.778334
3.270000	855.580750
3.271000	856.218884
3.272000	855.578082
3.273000	854.622237
3.274000	855.264713
3.275000	854.308371
3.276000	855.104773
3.277000	854.151430
3.278000	855.266899
3.279000	854.951856
3.280000	853.832544
3.281000	853.995349
3.282000	854.151114
3.283000	853.832560
3.284000	853.519687
3.285000	853.520532
3.286000	852.884417
3.287000	852.413941
3.288000	852.406917
3.289000	853.045549
3.290000	852.088197
3.291000	852.728999
3.292000	853.210524
3.293000	851.773486
3.294000	850.661545
3.295000	852.900004
3.296000	851.783541
3.297000	851.937467
3.298000	852.255027
3.299000	851.459967
3.300000	852.424690
3.301000	851.469011
3.302000	851.149115
3.303000	852.102789
3.304000	851.305046
3.305000	850.832912
3.306000	851.313593
3.307000	851.147789
3.308000	852.118360
3.309000	851.632660
3.310000	851.633836
3.311000	851.635344
3.312000	850.845650
3.313000	850.686870
3.314000	849.247330
3.315000	849.245657
3.316000	850.043732
3.317000	850.689056
3.318000	849.726188
3.319000	850.050772
3.320000	850.370005
3.321000	850.045421
3.322000	849.253873
3.323000	851.010807
3.324000	850.372356
3.325000	849.578804
3.326000	850.214587
3.327000	848.940353
3.328000	850.536834
3.329000	849.903403
3.330000	850.857575
3.331000	851.498046
3.332000	849.742453
3.333000	848.469546
3.334000	850.226496
3.335000	851.025068
3.336000	849.271314
3.337000	850.382939
3.338000	850.068891
3.339000	850.237213
3.340000	848.948750
3.341000	849.110711
3.342000	849.435129
3.343000	848.801698
3.344000	848.478953
3.345000	849.920679
3.346000	849.281052
3.347000	848.645435
3.348000	848.649957
3.349000	846.728892
3.350000	846.738268
3.351000	847.849547
3.352000	848.015863
3.353000	848.328901
3.354000	847.699479
3.355000	847.858094
3.356000	848.338111
3.357000	847.697143
3.358000	847.385116
3.359000	847.701500
3.360000	847.221150
3.361000	846.747328
3.362000	847.707198
3.363000	848.502589
3.364000	848.665726
3.365000	849.460786
3.366000	848.665560
3.367000	848.510292
3.368000	847.866822
3.369000	848.345498
3.370000	848.510307
3.371000	850.262885
3.372000	848.995013
3.373000	848.034812
3.374000	847.560824
3.375000	848.671936
3.376000	848.039500
3.377000	848.993008
3.378000	848.200632
3.379000	848.201129
3.380000	848.676127
3.381000	848.835239
3.382000	848.995526
3.383000	847.882243
3.384000	848.358914
3.385000	848.996205
3.386000	848.365275
3.387000	850.435745
3.388000	849.002897
3.389000	851.236503
3.390000	851.393444
3.391000	849.964108
3.392000	850.123054
3.393000	849.960928
3.394000	850.444292
3.395000	850.597721
3.396000	851.551395
3.397000	851.561600
3.398000	851.241206
3.399000	852.195544
3.400000	851.715360
3.401000	850.926330
3.402000	851.882009
3.403000	852.517626
3.404000	852.518967
3.405000	852.522148
3.406000	850.452341
3.407000	853.474481
3.408000	852.364875
3.409000	852.521485
3.410000	853.959683
3.411000	853.638446
3.412000	853.644475
3.413000	853.485198
3.414000	853.648831
3.415000	853.166975
3.416000	853.486705
3.417000	854.438375
3.418000	854.442384
3.419000	853.964553
3.420000	853.170834
3.421000	852.851435
3.422000	854.124674
3.423000	853.331287
3.424000	853.811636
3.425000	854.764135
3.426000	854.929118
3.427000	853.173517
3.428000	855.885973
3.429000	853.655050
3.430000	854.612568
3.431000	853.018439
3.432000	853.977464
3.433000	854.297360
3.434000	852.700381
3.435000	853.655895
3.436000	853.976469
3.437000	853.503144
3.438000	852.865688
3.439000	852.706411
3.440000	853.663929
3.441000	853.022132
3.442000	852.232754
3.443000	851.753581
3.444000	852.392213
3.445000	852.079341
3.446000	852.873059
3.447000	852.874235
3.448000	853.194810
3.449000	851.120994
3.450000	852.558198
3.451000	851.129194
3.452000	850.485046
3.453000	851.922581
3.454000	851.602685
3.455000	851.767992
3.456000	850.013907
3.457000	850.492583
3.458000	850.020599
3.459000	850.180389
3.460000	850.336486
3.461000	849.695186
3.462000	849.860825
3.463000	849.064091
3.464000	849.063760
3.465000	849.706235
3.466000	849.551812
3.467000	848.749049
3.468000	849.070965
3.469000	849.384169
3.470000	847.633927
3.471000	848.433344
3.472000	848.913361
3.473000	847.964375
3.474000	848.440715
3.475000	847.798405
3.476000	847.642308
3.477000	847.966727
3.478000	846.848424
3.479000	847.804103
3.480000	847.323754
3.481000	847.010716
3.482000	848.448086
3.483000	846.691152
3.484000	846.533216
3.485000	847.169496
3.486000	845.897433
3.487000	845.737146
3.488000	844.783984
3.489000	845.102373
3.490000	846.375280
3.491000	844.784663
3.492000	846.383480
3.493000	845.744020
3.494000	845.750546
3.495000	846.070111
3.496000	844.476644
3.497000	844.632575
3.498000	844.788175
3.499000	844.155407
3.500000	843.833506
3.501000	844.633420
3.502000	843.523649
3.503000	842.883178
3.504000	843.998979
3.505000	843.685609
3.506000	844.159929
3.507000	843.206933
3.508000	843.362864
3.509000	843.367884
3.510000	843.048651
3.511000	842.731272
3.512000	844.167300
3.513000	844.801410
3.514000	843.372406
3.515000	843.367055
3.516000	843.844058
3.517000	842.730775
3.518000	843.049163
3.519000	843.532693
3.520000	844.327256
3.521000	843.373084
3.522000	843.532196
3.523000	844.648494
3.524000	844.336797
3.525000	842.576683
3.526000	843.376265
3.527000	842.580029
3.528000	844.021589
3.529000	841.465238
3.530000	843.055193
3.531000	843.376431
3.532000	843.537049
3.533000	843.536718
3.534000	842.421762
3.535000	844.498592
3.536000	843.863819
3.537000	842.900438
3.538000	844.497250
3.539000	842.900935
3.540000	843.705371
3.541000	844.817659
3.542000	844.020082
3.543000	843.859463
3.544000	844.973922
3.545000	844.972746
3.546000	843.381797
3.547000	844.022599
3.548000	844.980962
3.549000	843.859132
3.550000	845.143916
3.551000	844.506295
3.552000	845.940318
3.553000	844.027287
3.554000	845.778192
3.555000	844.025448
3.556000	845.785729
3.557000	844.345179
3.558000	846.094245
3.559000	845.464491
3.560000	844.664743
3.561000	844.982469
3.562000	845.144761
3.563000	845.946182
3.564000	846.262400
3.565000	845.946845
3.566000	845.947192
3.567000	846.267254
3.568000	846.265084
3.569000	846.899691
3.570000	846.424361
3.571000	847.540658
3.572000	846.745267
3.573000	849.143003
3.574000	847.703795
3.575000	847.707141
3.576000	848.024701
3.577000	849.298769
3.578000	848.505050
3.579000	848.987072
3.580000	849.624363
3.581000	850.251946
3.582000	849.143848
3.583000	851.376443
3.584000	851.215493
3.585000	851.697515
3.586000	850.902621
3.587000	852.336147
3.588000	852.972427
3.589000	852.655712
3.590000	851.547780
3.591000	852.978623
3.592000	852.826038
3.593000	853.299529
3.594000	854.415826
3.595000	853.305558
3.596000	854.420514
3.597000	853.624957
3.598000	854.418013
3.599000	855.063503
3.600000	855.384740
3.601000	855.221272
3.602000	854.591850
3.603000	856.824115
3.604000	855.864261
3.605000	857.623365
3.606000	856.347459
3.607000	858.108071
3.608000	857.466937
3.609000	856.042455
3.610000	856.832496
3.611000	857.637097
3.612000	857.161270
3.613000	858.273212
3.614000	858.118457
3.615000	857.320216
3.616000	856.841209
3.617000	857.323065
3.618000	857.167134
3.619000	857.650332
3.620000	858.767972
3.621000	858.772825
3.622000	858.452929
3.623000	857.653860
3.624000	859.255526
3.625000	857.658879
3.626000	858.783211
3.627000	860.693575
3.628000	860.059465
3.629000	859.581120
3.630000	858.472359
3.631000	858.783393
3.632000	859.276795
3.633000	858.157151
3.634000	858.958406
3.635000	859.918773
3.636000	859.441107
3.637000	858.331668
3.638000	858.965115
3.639000	859.769716
3.640000	859.614282
3.641000	858.176084
3.642000	858.180606
3.643000	859.142646
3.644000	857.869076
3.645000	858.347420
3.646000	859.143988
3.647000	858.513240
3.648000	858.036734
3.649000	859.472596
3.650000	859.635567
3.651000	859.156891
3.652000	859.957981
3.653000	859.800708
3.654000	859.964010
3.655000	860.123122
3.656000	859.812601
3.657000	857.901575
3.658000	859.183179
3.659000	859.340286
3.660000	859.505427
3.661000	859.665880
3.662000	857.913302
3.663000	858.240570
3.664000	858.240570
3.665000	858.084804
3.666000	857.292925
3.667000	859.206137
3.668000	857.452549
3.669000	857.140356
3.670000	856.662856
3.671000	856.184842
3.672000	857.782499
3.673000	857.306672
3.674000	857.629583
3.675000	856.190540
3.676000	856.199585
3.677000	856.837372
3.678000	856.203941
3.679000	855.093673
3.680000	855.729621
3.681000	854.940922
3.682000	855.098195
3.683000	854.940425
3.684000	854.303979
3.685000	854.789182
3.686000	854.949635
3.687000	852.561953
3.688000	852.404680
3.689000	853.046658
3.690000	851.291563
3.691000	851.774430
3.692000	851.613811
3.693000	850.823273
3.694000	851.465251
3.695000	850.192178
3.696000	850.032901
3.697000	849.557074
3.698000	849.879819
3.699000	848.125236
3.700000	848.766701
3.701000	849.247895
3.702000	848.611946
3.703000	848.780102
3.704000	848.138968
3.705000	847.342069
3.706000	847.351777
3.707000	847.826941
3.708000	847.993423
3.709000	845.910398
3.710000	847.512908
3.711000	846.238675
3.712000	846.080227
3.713000	845.923798
3.714000	846.402972
3.715000	846.882658
3.716000	847.519948
3.717000	845.926316
3.718000	844.979003
3.719000	845.774063
3.720000	845.786785
3.721000	845.301250
3.722000	846.589713
3.723000	845.943228
3.724000	845.785956
3.725000	846.428100
3.726000	845.945746
3.727000	847.067063
3.728000	846.433963
3.729000	846.907454
3.730000	844.678205
3.731000	845.159564
3.732000	844.841673
3.733000	845.159233
3.734000	845.318344
3.735000	845.163921
3.736000	844.530655
3.737000	844.052311
3.738000	845.964845
3.739000	844.850054
3.740000	844.531831
3.741000	843.735430
3.742000	843.420553
3.743000	845.336101
3.744000	844.541207
3.745000	843.421729
3.746000	844.385110
3.747000	843.903088
3.748000	844.220979
3.749000	842.796829
3.750000	842.789805
3.751000	843.591723
3.752000	843.431783
3.753000	843.591558
3.754000	842.478109
3.755000	842.476104
3.756000	843.118414
3.757000	842.320505
3.758000	842.323022
3.759000	843.119424
3.760000	842.642255
3.761000	842.007814
3.762000	841.690088
3.763000	842.170272
3.764000	843.289087
3.765000	841.533826
3.766000	841.371368
3.767000	840.894697
3.768000	839.781414
3.769000	840.585684
3.770000	842.178322
3.771000	840.904917
3.772000	840.584011
3.773000	840.260768
3.774000	840.111364
3.775000	840.271817
3.776000	840.752166
3.777000	841.547061
3.778000	839.799337
3.779000	841.077429
3.780000	841.390964
3.781000	840.759869
3.782000	840.274335
3.783000	841.715051
3.784000	839.320163
3.785000	840.596914
3.786000	840.442822
3.787000	841.394989
3.788000	840.439144
3.789000	840.763397
3.790000	839.486812
3.791000	840.761724
3.792000	841.559633
3.793000	839.328876
3.794000	839.649782
3.795000	839.815752
3.796000	841.888573
3.797000	840.770436
3.798000	840.931221
3.799000	842.045348
3.800000	841.886734
3.801000	840.770436
3.802000	841.890925
3.803000	841.571194
3.804000	842.374620
3.805000	842.694185
3.806000	842.058402
3.807000	841.738340
3.808000	841.896954
3.809000	842.056066
3.810000	840.623384
3.811000	840.944622
3.812000	840.944124
3.813000	840.945963
3.814000	843.020457
3.815000	840.948315
3.816000	842.702897
3.817000	842.225397
3.818000	842.228246
3.819000	841.909013
3.820000	842.070974
3.821000	841.913867
3.822000	842.383846
3.823000	842.224569
3.824000	841.750912
3.825000	841.270397
3.826000	841.114798
3.827000	841.115808
3.828000	840.163972
3.829000	842.396236
3.830000	841.444582
3.831000	842.082867
3.832000	841.442743
3.833000	840.325435
3.834000	840.169339
3.835000	838.577711
3.836000	840.170515
3.837000	840.332807
3.838000	840.175037
3.839000	839.855638
3.840000	840.175202
3.841000	839.537084
3.842000	838.425971
3.843000	839.222373
3.844000	837.471634
3.845000	839.063924
3.846000	837.786510
3.847000	838.269874
3.848000	838.903984
3.849000	838.271547
3.850000	837.156260
3.851000	838.759267
3.852000	838.273899
3.853000	838.117637
3.854000	836.843553
3.855000	836.362707
3.856000	836.210454
3.857000	835.572500
3.858000	836.837374
3.859000	836.524667
3.860000	835.890060
3.861000	836.850261
3.862000	836.531194
3.863000	836.687472
3.864000	836.369912
3.865000	835.736481
3.866000	837.010880
3.867000	835.416917
3.868000	835.741666
3.869000	833.982893
3.870000	835.416917
3.871000	836.860647
3.872000	836.220177
3.873000	836.218338
3.874000	836.855794
3.875000	836.218172
3.876000	835.744350
3.877000	836.217840
3.878000	836.545605
3.879000	837.974443
3.880000	835.906641
3.881000	836.863331
3.882000	837.019940
3.883000	837.661405
3.884000	836.390684
3.885000	837.339836
3.886000	838.138077
3.887000	837.506650
3.888000	837.026135
3.889000	837.822869
3.890000	837.666938
3.891000	837.981814
3.892000	838.303731
3.893000	839.100795
3.894000	839.740256
3.895000	838.143443
3.896000	839.266434
3.897000	838.628646
3.898000	838.148297
3.899000	839.110005
3.900000	838.792114
3.901000	838.151146
3.902000	838.310257
3.903000	839.430746
3.904000	840.868116
3.905000	839.112523
3.906000	839.910929
3.907000	841.346626
3.908000	839.121054
3.909000	839.914291
3.910000	841.669039
3.911000	841.509762
3.912000	841.667366
3.913000	840.875487
3.914000	841.665362
3.915000	841.832507
3.916000	842.156262
3.917000	842.946635
3.918000	842.153082
3.919000	841.836532
3.920000	842.950991
3.921000	843.591793
3.922000	844.062269
3.923000	844.708257
3.924000	844.068299
3.925000	844.393049
3.926000	845.028997
3.927000	845.032012
3.928000	845.192631
3.929000	844.875915
3.930000	845.507176
3.931000	844.395898
3.932000	845.831594
3.933000	846.948902
3.934000	847.271813
3.935000	847.591377
3.936000	848.074741
3.937000	847.906933
3.938000	847.272989
3.939000	849.185191
3.940000	848.388624
3.941000	848.396989
3.942000	849.991631
3.943000	849.194732
3.944000	850.467458
3.945000	850.147397
3.946000	849.189879
3.947000	850.148407
3.948000	849.991466
3.949000	850.951501
3.950000	850.629932
3.951000	850.790219
3.952000	849.523010
3.953000	851.750917
3.954000	850.788546
3.955000	851.594655
3.956000	852.386535
3.957000	852.075004
3.958000	852.707607
3.959000	852.876757
3.960000	852.714133
3.961000	853.510701
3.962000	853.513715
3.963000	854.634370
3.964000	853.673837
3.965000	853.992226
3.966000	853.040737
3.967000	853.355448
3.968000	854.955276
3.969000	854.318664
3.970000	853.674516
3.971000	854.793828
3.972000	856.074588
3.973000	856.388636
3.974000	854.959301
3.975000	855.600103
3.976000	853.844345
3.977000	855.914482
3.978000	854.164075
3.979000	855.765078
3.980000	857.203789
3.981000	857.519163
3.982000	855.928546
3.983000	856.082141
3.984000	854.812248
3.985000	857.203458
3.986000	855.931229
3.987000	855.445861
3.988000	855.934078
3.989000	855.776971
3.990000	857.842256
3.991000	857.529218
3.992000	856.415769
3.993000	855.145379
3.994000	857.056240
3.995000	856.097546
3.996000	855.622051
3.997000	856.898801
3.998000	855.942791
3.999000	855.310189
