BioWare Version 5.3.0.7 Export
Device:	4827095 9260AA6
Samples (#):	4000
Rate (Hz):	1000.000000
Contact period start (sample #):	0
Contact period end (sample #):	3847
Contact period start time (s):	0.000000
Contact period end time (s):	3.847000
First sample time (s):	0.000000
Normalized force (N):	2.549780
Normalized length (m):	1.000000
File Information
Date	May 25, 2017  15:52:42
Name	
ID	
Classification	
Description	
abs time (s)	Fz
	N
0.000000	946.915151
0.001000	947.232711
0.002000	947.552607
0.003000	946.599943
0.004000	947.716241
0.005000	948.032625
0.006000	946.598767
0.007000	947.391822
0.008000	945.800195
0.009000	946.119925
0.010000	947.708207
0.011000	946.118086
0.012000	947.870333
0.013000	948.199273
0.014000	947.079960
0.015000	947.395847
0.016000	946.596431
0.017000	946.757050
0.018000	947.239238
0.019000	947.243428
0.020000	947.717416
0.021000	946.919342
0.022000	947.560310
0.023000	947.559812
0.024000	946.600787
0.025000	945.651967
0.026000	946.923367
0.027000	946.289423
0.028000	946.610826
0.029000	946.607148
0.030000	947.411916
0.031000	945.647957
0.032000	945.334588
0.033000	946.298632
0.034000	946.613343
0.035000	945.177481
0.036000	945.503572
0.037000	946.296628
0.038000	944.861263
0.039000	944.705166
0.040000	943.587195
0.041000	945.504583
0.042000	944.230681
0.043000	944.548406
0.044000	943.432606
0.045000	944.874663
0.046000	944.707021
0.047000	943.756693
0.048000	944.551421
0.049000	943.120412
0.050000	943.118242
0.051000	944.872493
0.052000	944.714723
0.053000	943.444168
0.054000	943.285222
0.055000	944.718235
0.056000	944.080116
0.057000	943.596421
0.058000	944.397842
0.059000	944.400012
0.060000	944.560631
0.061000	943.760552
0.062000	944.079453
0.063000	945.515979
0.064000	944.240735
0.065000	944.397842
0.066000	945.202609
0.067000	945.518828
0.068000	945.679944
0.069000	944.563149
0.070000	945.041493
0.071000	943.608811
0.072000	944.092341
0.073000	945.682295
0.074000	945.199263
0.075000	944.568168
0.076000	944.089160
0.077000	945.841075
0.078000	944.567505
0.079000	943.931059
0.080000	943.770275
0.081000	944.247940
0.082000	944.726119
0.083000	943.613831
0.084000	945.844256
0.085000	944.247443
0.086000	945.369936
0.087000	943.292940
0.088000	944.252463
0.089000	943.298291
0.090000	944.094693
0.091000	945.055060
0.092000	944.735495
0.093000	943.614012
0.094000	943.296618
0.095000	943.462090
0.096000	943.299301
0.097000	944.417106
0.098000	944.261175
0.099000	943.941279
0.100000	943.777480
0.101000	942.502402
0.102000	942.984259
0.103000	943.138185
0.104000	943.622046
0.105000	942.503412
0.106000	943.308677
0.107000	942.663187
0.108000	943.462603
0.109000	943.463945
0.110000	943.142707
0.111000	941.708850
0.112000	943.785680
0.113000	942.829504
0.114000	942.988947
0.115000	941.393807
0.116000	942.985766
0.117000	942.986942
0.118000	942.512622
0.119000	942.191882
0.120000	942.511778
0.121000	941.557441
0.122000	941.714548
0.123000	941.239549
0.124000	940.442982
0.125000	941.877171
0.126000	942.353677
0.127000	940.759034
0.128000	941.872152
0.129000	940.920829
0.130000	941.719401
0.131000	940.765064
0.132000	941.401344
0.133000	941.085126
0.134000	941.083784
0.135000	941.561797
0.136000	940.606118
0.137000	942.202931
0.138000	940.927356
0.139000	941.561797
0.140000	941.879854
0.141000	941.405700
0.142000	942.677929
0.143000	941.407871
0.144000	942.839045
0.145000	941.406198
0.146000	942.522827
0.147000	942.995489
0.148000	942.525344
0.149000	941.564812
0.150000	942.523837
0.151000	942.363052
0.152000	942.043488
0.153000	941.245247
0.154000	942.843567
0.155000	944.277591
0.156000	942.525676
0.157000	943.962548
0.158000	943.002347
0.159000	942.201936
0.160000	942.528028
0.161000	943.005859
0.162000	943.967402
0.163000	943.484038
0.164000	943.481189
0.165000	944.120484
0.166000	943.327097
0.167000	943.174015
0.168000	945.082524
0.169000	945.239962
0.170000	943.485711
0.171000	943.805110
0.172000	943.962880
0.173000	944.444405
0.174000	943.966905
0.175000	944.118479
0.176000	943.490399
0.177000	944.763969
0.178000	944.449424
0.179000	945.403264
0.180000	944.763969
0.181000	944.762628
0.182000	945.880599
0.183000	946.042393
0.184000	945.249006
0.185000	945.081861
0.186000	945.565556
0.187000	944.606531
0.188000	945.080353
0.189000	944.768326
0.190000	946.042891
0.191000	945.091402
0.192000	945.409957
0.193000	944.769999
0.194000	946.358446
0.195000	944.616072
0.196000	943.977109
0.197000	944.773842
0.198000	944.935803
0.199000	944.134382
0.200000	944.932456
0.201000	944.452107
0.202000	946.217076
0.203000	945.419332
0.204000	944.933798
0.205000	945.415820
0.206000	945.261563
0.207000	945.256543
0.208000	945.100944
0.209000	945.255202
0.210000	945.423689
0.211000	945.420342
0.212000	943.674291
0.213000	944.143260
0.214000	944.148958
0.215000	943.830222
0.216000	943.353385
0.217000	944.948690
0.218000	943.189089
0.219000	943.037845
0.220000	943.670779
0.221000	944.313089
0.222000	943.039353
0.223000	944.155982
0.224000	942.879231
0.225000	943.359415
0.226000	942.403570
0.227000	944.319450
0.228000	942.564189
0.229000	943.038011
0.230000	941.448735
0.231000	942.244624
0.232000	942.088693
0.233000	942.244458
0.234000	941.291629
0.235000	943.681828
0.236000	941.764275
0.237000	941.768963
0.238000	942.083840
0.239000	941.291794
0.240000	941.930758
0.241000	941.450906
0.242000	942.565365
0.243000	941.767456
0.244000	942.252493
0.245000	942.086854
0.246000	942.251151
0.247000	941.770802
0.248000	941.613032
0.249000	942.570384
0.250000	942.255176
0.251000	941.927909
0.252000	943.848974
0.253000	943.524887
0.254000	942.728154
0.255000	943.529243
0.256000	944.642526
0.257000	942.888607
0.258000	944.156314
0.259000	943.839598
0.260000	943.681994
0.261000	943.524721
0.262000	944.640688
0.263000	945.756985
0.264000	944.322796
0.265000	944.319616
0.266000	945.277978
0.267000	945.917770
0.268000	945.445952
0.269000	944.321620
0.270000	946.714503
0.271000	944.160338
0.272000	946.391427
0.273000	946.716011
0.274000	945.124383
0.275000	945.916263
0.276000	946.079730
0.277000	946.079730
0.278000	945.916263
0.279000	946.710991
0.280000	946.715679
0.281000	946.078886
0.282000	948.793851
0.283000	947.035741
0.284000	946.397622
0.285000	947.349955
0.286000	945.274963
0.287000	947.193013
0.288000	946.715679
0.289000	947.672700
0.290000	947.036419
0.291000	948.313833
0.292000	946.874790
0.293000	947.191340
0.294000	948.312326
0.295000	946.397622
0.296000	946.717352
0.297000	946.079896
0.298000	946.876464
0.299000	946.881814
0.300000	946.397953
0.301000	947.040263
0.302000	946.877805
0.303000	946.877474
0.304000	946.723547
0.305000	946.398963
0.306000	947.037248
0.307000	946.080741
0.308000	946.079896
0.309000	946.557578
0.310000	945.764688
0.311000	944.970125
0.312000	946.561090
0.313000	945.759669
0.314000	945.926648
0.315000	945.448304
0.316000	946.082579
0.317000	946.402144
0.318000	946.875801
0.319000	945.443285
0.320000	945.918780
0.321000	945.123223
0.322000	946.718694
0.323000	946.402144
0.324000	945.766195
0.325000	946.400637
0.326000	946.721709
0.327000	945.771049
0.328000	946.406666
0.329000	946.246710
0.330000	946.720367
0.331000	946.082745
0.332000	946.246213
0.333000	946.882327
0.334000	946.885674
0.335000	946.406666
0.336000	946.083921
0.337000	946.402144
0.338000	946.406666
0.339000	946.723050
0.340000	946.083921
0.341000	946.244208
0.342000	946.406832
0.343000	947.834329
0.344000	947.362179
0.345000	946.721874
0.346000	946.558919
0.347000	947.044288
0.348000	946.408671
0.349000	946.886171
0.350000	947.039434
0.351000	947.844533
0.352000	947.525466
0.353000	946.400471
0.354000	948.470443
0.355000	947.201726
0.356000	947.675880
0.357000	947.839348
0.358000	948.000132
0.359000	947.683583
0.360000	948.154722
0.361000	946.726396
0.362000	948.633398
0.363000	948.952299
0.364000	947.996786
0.365000	948.319531
0.366000	947.836167
0.367000	947.993937
0.368000	948.478809
0.369000	948.314346
0.370000	948.319366
0.371000	949.270025
0.372000	947.841518
0.373000	948.479984
0.374000	948.319697
0.375000	947.682241
0.376000	947.364018
0.377000	948.318521
0.378000	949.110069
0.379000	948.321039
0.380000	948.478311
0.381000	949.275210
0.382000	949.428805
0.383000	947.839182
0.384000	948.316019
0.385000	948.797031
0.386000	949.910827
0.387000	949.910993
0.388000	949.590931
0.389000	948.316019
0.390000	949.114426
0.391000	948.632072
0.392000	948.948125
0.393000	950.233407
0.394000	949.272708
0.395000	949.435000
0.396000	949.431654
0.397000	948.956490
0.398000	949.110416
0.399000	949.906818
0.400000	950.544606
0.401000	949.754233
0.402000	948.793867
0.403000	950.226383
0.404000	949.593780
0.405000	950.070618
0.406000	948.954486
0.407000	949.747707
0.408000	950.709912
0.409000	948.954320
0.410000	949.906487
0.411000	948.636263
0.412000	948.315191
0.413000	950.069789
0.414000	950.549972
0.415000	950.222705
0.416000	948.952481
0.417000	949.428142
0.418000	951.022619
0.419000	950.068613
0.420000	950.547289
0.421000	950.071462
0.422000	949.269875
0.423000	948.960184
0.424000	948.318884
0.425000	949.432167
0.426000	948.640287
0.427000	949.271714
0.428000	949.589771
0.429000	949.596132
0.430000	949.119461
0.431000	948.479834
0.432000	948.793038
0.433000	948.158597
0.434000	946.886865
0.435000	947.522317
0.436000	948.158431
0.437000	947.364200
0.438000	945.289887
0.439000	947.366220
0.440000	946.562116
0.441000	947.520643
0.442000	947.522482
0.443000	948.479503
0.444000	945.612300
0.445000	947.045314
0.446000	945.768231
0.447000	946.253268
0.448000	946.412380
0.449000	945.453852
0.450000	945.932694
0.451000	945.617485
0.452000	945.769904
0.453000	945.456867
0.454000	945.135795
0.455000	944.504534
0.456000	944.815899
0.457000	944.342408
0.458000	944.344081
0.459000	944.017658
0.460000	946.415726
0.461000	945.297755
0.462000	944.499183
0.463000	943.542163
0.464000	943.548689
0.465000	944.979864
0.466000	944.025858
0.467000	943.383217
0.468000	943.226954
0.469000	943.547016
0.470000	943.386729
0.471000	943.868585
0.472000	942.589996
0.473000	942.590327
0.474000	942.593176
0.475000	942.756810
0.476000	942.748941
0.477000	942.109149
0.478000	941.794770
0.479000	941.480225
0.480000	941.000041
0.481000	941.953384
0.482000	942.433899
0.483000	942.751956
0.484000	941.001549
0.485000	942.750117
0.486000	941.955389
0.487000	941.640678
0.488000	941.955554
0.489000	941.958901
0.490000	943.068506
0.491000	942.117681
0.492000	941.791424
0.493000	942.271275
0.494000	943.078213
0.495000	943.706128
0.496000	943.070013
0.497000	943.391085
0.498000	943.068009
0.499000	942.271275
0.500000	942.115842
0.501000	942.589333
0.502000	941.635327
0.503000	942.755137
0.504000	942.117183
0.505000	943.703957
0.506000	941.953218
0.507000	943.864742
0.508000	943.708645
0.509000	941.789419
0.510000	943.227286
0.511000	943.702781
0.512000	942.589167
0.513000	944.023688
0.514000	942.430387
0.515000	944.815070
0.516000	943.382720
0.517000	943.710318
0.518000	944.341579
0.519000	943.701108
0.520000	945.133293
0.521000	943.864576
0.522000	944.183975
0.523000	943.540324
0.524000	945.297589
0.525000	945.618661
0.526000	945.615481
0.527000	946.408702
0.528000	945.935045
0.529000	946.729774
0.530000	946.090479
0.531000	945.138644
0.532000	945.611803
0.533000	945.610627
0.534000	945.456701
0.535000	946.416902
0.536000	945.451847
0.537000	946.726759
0.538000	946.413556
0.539000	946.410044
0.540000	945.773764
0.541000	946.729940
0.542000	948.319563
0.543000	946.724920
0.544000	947.677585
0.545000	947.524834
0.546000	948.318553
0.547000	946.564302
0.548000	948.481342
0.549000	948.319050
0.550000	948.159938
0.551000	947.202586
0.552000	947.998822
0.553000	947.202586
0.554000	947.040460
0.555000	947.525331
0.556000	947.518805
0.557000	947.840208
0.558000	948.314030
0.559000	946.884529
0.560000	946.722734
0.561000	947.363205
0.562000	946.878500
0.563000	947.198064
0.564000	947.514448
0.565000	946.719222
0.566000	946.405009
0.567000	946.403004
0.568000	946.886699
0.569000	946.559101
0.570000	946.717881
0.571000	948.155582
0.572000	947.357673
0.573000	946.239536
0.574000	945.123404
0.575000	947.031582
0.576000	945.285862
0.577000	946.719720
0.578000	946.242882
0.579000	944.646401
0.580000	945.921645
0.581000	946.239536
0.582000	947.037777
0.583000	946.398813
0.584000	945.446812
0.585000	945.604251
0.586000	945.761192
0.587000	944.485617
0.588000	945.920469
0.589000	945.444642
0.590000	945.605426
0.591000	945.123901
0.592000	945.126750
0.593000	946.079415
0.594000	945.123404
0.595000	944.331690
0.596000	945.923484
0.597000	945.604085
0.598000	942.891306
0.599000	944.646401
0.600000	943.527420
0.601000	944.487456
0.602000	944.807186
0.603000	944.325661
0.604000	943.689547
0.605000	943.052256
0.606000	943.526244
0.607000	943.845643
0.608000	944.164876
0.609000	943.686366
0.610000	944.004589
0.611000	942.565712
0.612000	943.846985
0.613000	944.481923
0.614000	944.004755
0.615000	944.163535
0.616000	943.524737
0.617000	943.837278
0.618000	942.723150
0.619000	943.681678
0.620000	944.159013
0.621000	945.114691
0.622000	943.678995
0.623000	944.000398
0.624000	944.955580
0.625000	944.795956
0.626000	945.914771
0.627000	945.591860
0.628000	945.592026
0.629000	946.226467
0.630000	944.795293
0.631000	944.954570
0.632000	946.224628
0.633000	946.381735
0.634000	947.025205
0.635000	947.013493
0.636000	945.908741
0.637000	945.905395
0.638000	946.382398
0.639000	945.269612
0.640000	945.104140
0.641000	945.902546
0.642000	946.541841
0.643000	945.902215
0.644000	946.378042
0.645000	946.219096
0.646000	947.179794
0.647000	946.222276
0.648000	947.812397
0.649000	947.173433
0.650000	946.696596
0.651000	945.424367
0.652000	946.050277
0.653000	947.650602
0.654000	946.530958
0.655000	946.374348
0.656000	947.965644
0.657000	945.259226
0.658000	947.008458
0.659000	944.620097
0.660000	946.216081
0.661000	946.054121
0.662000	945.903541
0.663000	947.174262
0.664000	946.059140
0.665000	946.377860
0.666000	944.625282
0.667000	944.457640
0.668000	944.461317
0.669000	944.299523
0.670000	945.421005
0.671000	944.142747
0.672000	944.620760
0.673000	944.938652
0.674000	945.249851
0.675000	944.461980
0.676000	944.139401
0.677000	944.142581
0.678000	945.419498
0.679000	943.027460
0.680000	941.913166
0.681000	943.189752
0.682000	942.705543
0.683000	943.183722
0.684000	943.027460
0.685000	942.385481
0.686000	942.872192
0.687000	942.549281
0.688000	942.388662
0.689000	941.431973
0.690000	942.867835
0.691000	943.024942
0.692000	942.233228
0.693000	942.869674
0.694000	941.745176
0.695000	942.387818
0.696000	943.183043
0.697000	942.070092
0.698000	942.071931
0.699000	943.022590
0.700000	941.270012
0.701000	941.912488
0.702000	941.911146
0.703000	942.066067
0.704000	943.022425
0.705000	942.872010
0.706000	943.178521
0.707000	942.230876
0.708000	944.138722
0.709000	941.741483
0.710000	941.263983
0.711000	942.860133
0.712000	942.546250
0.713000	941.906790
0.714000	943.977425
0.715000	943.505110
0.716000	943.179018
0.717000	942.220159
0.718000	941.899750
0.719000	943.656187
0.720000	943.020073
0.721000	943.334618
0.722000	942.699498
0.723000	942.223837
0.724000	943.494392
0.725000	944.288955
0.726000	942.539724
0.727000	943.010863
0.728000	943.174828
0.729000	942.381275
0.730000	942.215637
0.731000	943.491378
0.732000	943.015385
0.733000	942.854932
0.734000	942.857102
0.735000	943.966210
0.736000	943.169809
0.737000	941.586381
0.738000	943.015053
0.739000	942.053345
0.740000	942.371236
0.741000	941.742146
0.742000	942.537372
0.743000	942.217144
0.744000	942.058530
0.745000	942.692640
0.746000	941.419401
0.747000	942.210783
0.748000	942.699167
0.749000	943.333276
0.750000	942.212291
0.751000	941.899253
0.752000	943.014043
0.753000	942.693816
0.754000	943.173155
0.755000	942.535036
0.756000	943.656519
0.757000	942.533860
0.758000	943.974079
0.759000	943.338130
0.760000	943.174165
0.761000	944.608520
0.762000	943.334949
0.763000	943.497076
0.764000	944.134366
0.765000	943.174165
0.766000	942.221335
0.767000	944.772485
0.768000	943.973747
0.769000	944.294140
0.770000	944.770149
0.771000	942.544411
0.772000	943.652012
0.773000	943.816806
0.774000	944.129678
0.775000	944.288127
0.776000	943.656021
0.777000	944.776841
0.778000	944.450916
0.779000	942.857615
0.780000	943.656353
0.781000	943.017058
0.782000	943.977259
0.783000	943.657529
0.784000	943.657695
0.785000	944.614549
0.786000	944.459281
0.787000	944.141224
0.788000	944.457608
0.789000	944.450584
0.790000	945.731510
0.791000	945.256512
0.792000	945.891797
0.793000	945.574072
0.794000	944.934445
0.795000	944.460126
0.796000	943.980274
0.797000	944.618061
0.798000	945.092049
0.799000	946.044051
0.800000	944.936118
0.801000	944.935787
0.802000	946.531424
0.803000	945.256180
0.804000	945.094386
0.805000	945.893471
0.806000	945.415126
0.807000	945.408599
0.808000	945.733349
0.809000	946.218054
0.810000	945.572399
0.811000	944.616720
0.812000	947.331006
0.813000	947.172557
0.814000	946.051075
0.815000	945.736032
0.816000	946.210352
0.817000	945.574735
0.818000	946.372644
0.819000	946.525891
0.820000	946.686013
0.821000	946.050230
0.822000	946.211180
0.823000	947.807496
0.824000	946.048723
0.825000	947.327313
0.826000	946.371468
0.827000	946.842773
0.828000	945.888104
0.829000	945.890440
0.830000	946.208497
0.831000	947.172044
0.832000	947.160333
0.833000	947.960578
0.834000	946.525560
0.835000	947.003226
0.836000	946.524881
0.837000	946.208166
0.838000	946.844446
0.839000	946.524716
0.840000	946.203644
0.841000	946.844777
0.842000	947.157649
0.843000	945.571538
0.844000	945.251311
0.845000	946.682485
0.846000	945.892610
0.847000	945.081316
0.848000	945.406232
0.849000	945.884908
0.850000	946.522364
0.851000	945.883400
0.852000	946.364925
0.853000	944.449377
0.854000	945.250798
0.855000	943.649463
0.856000	946.198443
0.857000	944.924707
0.858000	945.405222
0.859000	946.357389
0.860000	945.882390
0.861000	945.564002
0.862000	945.242930
0.863000	945.725283
0.864000	946.041667
0.865000	945.242764
0.866000	945.879210
0.867000	944.282894
0.868000	945.087827
0.869000	944.763078
0.870000	944.447025
0.871000	945.559645
0.872000	945.243427
0.873000	945.240246
0.874000	944.283392
0.875000	946.199437
0.876000	945.238739
0.877000	946.040823
0.878000	945.553616
0.879000	945.719420
0.880000	945.238905
0.881000	945.874009
0.882000	946.196423
0.883000	944.921013
0.884000	945.719585
0.885000	946.196588
0.886000	945.080456
0.887000	944.276865
0.888000	946.832205
0.889000	946.191569
0.890000	946.352188
0.891000	947.306525
0.892000	946.672084
0.893000	946.357041
0.894000	946.673757
0.895000	946.516982
0.896000	946.993653
0.897000	946.831692
0.898000	947.307867
0.899000	945.711883
0.900000	947.308695
0.901000	946.510289
0.902000	946.029940
0.903000	946.506777
0.904000	946.987623
0.905000	946.987292
0.906000	947.467475
0.907000	947.149418
0.908000	947.623738
0.909000	947.462953
0.910000	946.196241
0.911000	947.464792
0.912000	946.346987
0.913000	947.302997
0.914000	946.350333
0.915000	946.984277
0.916000	946.822483
0.917000	946.983433
0.918000	945.710873
0.919000	945.867135
0.920000	946.984774
0.921000	946.665376
0.922000	945.074411
0.923000	946.826326
0.924000	946.661698
0.925000	944.756354
0.926000	945.230176
0.927000	945.075918
0.928000	945.551082
0.929000	945.231684
0.930000	946.028417
0.931000	944.431604
0.932000	945.065035
0.933000	946.345132
0.934000	945.225986
0.935000	945.704164
0.936000	944.751335
0.937000	945.384434
0.938000	945.228835
0.939000	944.745471
0.940000	945.068382
0.941000	944.107849
0.942000	943.949069
0.943000	944.105000
0.944000	943.947562
0.945000	943.156511
0.946000	944.102482
0.947000	946.022040
0.948000	944.741280
0.949000	945.066030
0.950000	944.425228
0.951000	945.218780
0.952000	944.580827
0.953000	944.904567
0.954000	945.222458
0.955000	943.151823
0.956000	945.218946
0.957000	944.903059
0.958000	945.697788
0.959000	944.260584
0.960000	945.538842
0.961000	944.419032
0.962000	945.376882
0.963000	946.170434
0.964000	945.534651
0.965000	945.693929
0.966000	946.167420
0.967000	945.690748
0.968000	945.533641
0.969000	946.642915
0.970000	946.007298
0.971000	945.691080
0.972000	945.851035
0.973000	946.962645
0.974000	945.685895
0.975000	947.281531
0.976000	945.684221
0.977000	947.600599
0.978000	946.005791
0.979000	947.119074
0.980000	946.799178
0.981000	946.481286
0.982000	945.843664
0.983000	946.323682
0.984000	946.163892
0.985000	946.957958
0.986000	946.477774
0.987000	946.481286
0.988000	947.435292
0.989000	946.000771
0.990000	946.641739
0.991000	946.000258
0.992000	945.204867
0.993000	944.886644
0.994000	946.317984
0.995000	945.681207
0.996000	946.476432
0.997000	945.042243
0.998000	944.727698
0.999000	945.686226
1.000000	945.367324
1.001000	946.479944
1.002000	946.320833
1.003000	946.474262
1.004000	944.884805
1.005000	945.681207
1.006000	945.048770
1.007000	946.479779
1.008000	945.681041
1.009000	945.363978
1.010000	944.883629
1.011000	944.566913
1.012000	944.244334
1.013000	944.247183
1.014000	944.410817
1.015000	944.887307
1.016000	943.928447
1.017000	945.203359
1.018000	945.365651
1.019000	944.405284
1.020000	945.043238
1.021000	945.679518
1.022000	945.837966
1.023000	944.560718
1.024000	946.631685
1.025000	945.679021
1.026000	945.995405
1.027000	945.682367
1.028000	945.836790
1.029000	945.361461
1.030000	945.348904
1.031000	945.518402
1.032000	946.950239
1.033000	946.153837
1.034000	946.791791
1.035000	947.426232
1.036000	949.338600
1.037000	948.224638
1.038000	947.901893
1.039000	947.744455
1.040000	947.737762
1.041000	948.379062
1.042000	949.973870
1.043000	949.176292
1.044000	949.327204
1.045000	951.244591
1.046000	950.766412
1.047000	951.405707
1.048000	950.764905
1.049000	950.924514
1.050000	952.035792
1.051000	952.035792
1.052000	951.560628
1.053000	953.627586
1.054000	952.342801
1.055000	953.311533
1.056000	953.146226
1.057000	953.784014
1.058000	954.260006
1.059000	953.938603
1.060000	953.786018
1.061000	955.371616
1.062000	956.013082
1.063000	954.896618
1.064000	955.211329
1.065000	955.532069
1.066000	955.366250
1.067000	956.956883
1.068000	957.123516
1.069000	957.762313
1.070000	958.874420
1.071000	958.229940
1.072000	959.192477
1.073000	959.509872
1.074000	959.350247
1.075000	959.500993
1.076000	959.827582
1.077000	961.261605
1.078000	960.775227
1.079000	961.580160
1.080000	960.624812
1.081000	961.893529
1.082000	960.143121
1.083000	959.341535
1.084000	962.052972
1.085000	962.370863
1.086000	961.256736
1.087000	963.006812
1.088000	960.300213
1.089000	963.005968
1.090000	962.848861
1.091000	963.009645
1.092000	963.650116
1.093000	963.643424
1.094000	963.014996
1.095000	963.158884
1.096000	962.530638
1.097000	963.805368
1.098000	963.329375
1.099000	963.651276
1.100000	964.602946
1.101000	962.850021
1.102000	962.530125
1.103000	962.694587
1.104000	961.894342
1.105000	961.571928
1.106000	962.853699
1.107000	963.168575
1.108000	962.368993
1.109000	960.934472
1.110000	959.659395
1.111000	961.418499
1.112000	960.302533
1.113000	960.940999
1.114000	959.026958
1.115000	959.833896
1.116000	960.298855
1.117000	959.194435
1.118000	958.227707
1.119000	957.914504
1.120000	957.916011
1.121000	956.962171
1.122000	957.752543
1.123000	955.364514
1.124000	954.569454
1.125000	953.780755
1.126000	953.938193
1.127000	951.386033
1.128000	950.741884
1.129000	951.540954
1.130000	951.707933
1.131000	950.272237
1.132000	949.957029
1.133000	948.358874
1.134000	946.287064
1.135000	947.567492
1.136000	945.493842
1.137000	945.015332
1.138000	945.015001
1.139000	944.063165
1.140000	941.832243
1.141000	941.832243
1.142000	941.515859
1.143000	940.233757
1.144000	940.557331
1.145000	937.847401
1.146000	938.174668
1.147000	935.786970
1.148000	934.344415
1.149000	934.347762
1.150000	932.914914
1.151000	930.370622
1.152000	929.736347
1.153000	930.367607
1.154000	928.138524
1.155000	926.545389
1.156000	924.628846
1.157000	924.476427
1.158000	923.042404
1.159000	921.932467
1.160000	920.493424
1.161000	918.744027
1.162000	917.149384
1.163000	917.306657
1.164000	914.604248
1.165000	913.171235
1.166000	913.010450
1.167000	909.665400
1.168000	909.827029
1.169000	906.480141
1.170000	904.246535
1.171000	904.251057
1.172000	902.981512
1.173000	900.114806
1.174000	899.629604
1.175000	896.288231
1.176000	895.336577
1.177000	893.422371
1.178000	891.673470
1.179000	889.763288
1.180000	886.885369
1.181000	884.664153
1.182000	884.341243
1.183000	882.114164
1.184000	879.726979
1.185000	879.408756
1.186000	876.381929
1.187000	874.791477
1.188000	871.765163
1.189000	871.288989
1.190000	867.782823
1.191000	867.141855
1.192000	865.392624
1.193000	863.004429
1.194000	858.543247
1.195000	856.464909
1.196000	855.836497
1.197000	852.648547
1.198000	848.663705
1.199000	846.916975
1.200000	845.959788
1.201000	842.610895
1.202000	840.063091
1.203000	837.035602
1.204000	833.693898
1.205000	832.102270
1.206000	828.434144
1.207000	826.207909
1.208000	822.059268
1.209000	819.995657
1.210000	816.647095
1.211000	812.505825
1.212000	810.267697
1.213000	805.966637
1.214000	803.263565
1.215000	800.074960
1.216000	795.932001
1.217000	793.384197
1.218000	789.240906
1.219000	787.012502
1.220000	782.551154
1.221000	779.208622
1.222000	774.581470
1.223000	771.882076
1.224000	767.575499
1.225000	764.707452
1.226000	760.724449
1.227000	756.905246
1.228000	752.604020
1.229000	748.455876
1.230000	743.999050
1.231000	740.331768
1.232000	735.396101
1.233000	733.008072
1.234000	727.599079
1.235000	724.406117
1.236000	719.142188
1.237000	714.534782
1.238000	710.228371
1.239000	704.970125
1.240000	700.823157
1.241000	695.728875
1.242000	691.112275
1.243000	685.687215
1.244000	680.757577
1.245000	675.972987
1.246000	669.448873
1.247000	664.346060
1.248000	657.971350
1.249000	652.076823
1.250000	647.144502
1.251000	641.240110
1.252000	635.830786
1.253000	628.496720
1.254000	622.283804
1.255000	616.235020
1.256000	610.335640
1.257000	602.852003
1.258000	598.390324
1.259000	589.783531
1.260000	583.887994
1.261000	576.724088
1.262000	571.145283
1.263000	564.295408
1.264000	558.240776
1.265000	550.914246
1.266000	543.586540
1.267000	537.534410
1.268000	529.722685
1.269000	523.829168
1.270000	517.143772
1.271000	509.181791
1.272000	502.963525
1.273000	497.400622
1.274000	491.023078
1.275000	484.649213
1.276000	477.479277
1.277000	471.586605
1.278000	465.373027
1.279000	459.642646
1.280000	453.581819
1.281000	448.174515
1.282000	442.601407
1.283000	436.544257
1.284000	431.130593
1.285000	424.757737
1.286000	420.139630
1.287000	415.521870
1.288000	411.381943
1.289000	405.167024
1.290000	401.510293
1.291000	395.931156
1.292000	391.620736
1.293000	386.691777
1.294000	383.184782
1.295000	378.726962
1.296000	375.544386
1.297000	370.442252
1.298000	366.777985
1.299000	361.838987
1.300000	358.492777
1.301000	356.265548
1.302000	351.002961
1.303000	347.023817
1.304000	344.947665
1.305000	341.765254
1.306000	337.777579
1.307000	335.065645
1.308000	332.522363
1.309000	328.214610
1.310000	324.710133
1.311000	323.436066
1.312000	320.731321
1.313000	318.973392
1.314000	317.377424
1.315000	313.392251
1.316000	312.758985
1.317000	310.836413
1.318000	310.522712
1.319000	307.812616
1.320000	307.008859
1.321000	306.695821
1.322000	304.305788
1.323000	305.101858
1.324000	304.145682
1.325000	304.302954
1.326000	303.983390
1.327000	304.299277
1.328000	303.337402
1.329000	306.208796
1.330000	305.086303
1.331000	304.931879
1.332000	306.369414
1.333000	308.112119
1.334000	309.395563
1.335000	308.916555
1.336000	311.944045
1.337000	311.306589
1.338000	312.257249
1.339000	314.014846
1.340000	313.855237
1.341000	316.561987
1.342000	318.472681
1.343000	319.107123
1.344000	319.429868
1.345000	321.813209
1.346000	323.567294
1.347000	324.368716
1.348000	327.230567
1.349000	326.436502
1.350000	330.740577
1.351000	332.011464
1.352000	335.199738
1.353000	337.271881
1.354000	340.461149
1.355000	342.844491
1.356000	347.308672
1.357000	349.056230
1.358000	353.047433
1.359000	357.016870
1.360000	360.683307
1.361000	363.871582
1.362000	368.166778
1.363000	371.993669
1.364000	376.929668
1.365000	380.597281
1.366000	384.100764
1.367000	388.563272
1.368000	394.133877
1.369000	398.432917
1.370000	404.015913
1.371000	408.469203
1.372000	412.451196
1.373000	418.350908
1.374000	422.010653
1.375000	428.065964
1.376000	432.684735
1.377000	436.830361
1.378000	442.570448
1.379000	448.298161
1.380000	452.921122
1.381000	458.818316
1.382000	464.231150
1.383000	467.582214
1.384000	473.951060
1.385000	477.297104
1.386000	483.033680
1.387000	488.133478
1.388000	491.951340
1.389000	498.489336
1.390000	502.785196
1.391000	509.960482
1.392000	516.176247
1.393000	521.751193
1.394000	526.843123
1.395000	533.860971
1.396000	539.113685
1.397000	545.805774
1.398000	552.980895
1.399000	558.551998
1.400000	564.601777
1.401000	571.450972
1.402000	577.823330
1.403000	584.356473
1.404000	591.689530
1.405000	598.377096
1.406000	604.427885
1.407000	610.484025
1.408000	619.082287
1.409000	625.299377
1.410000	631.507936
1.411000	639.948759
1.412000	646.804142
1.413000	655.085506
1.414000	661.137305
1.415000	667.987495
1.416000	675.951315
1.417000	684.546396
1.418000	691.722014
1.419000	699.369450
1.420000	708.133847
1.421000	716.419070
1.422000	724.222106
1.423000	733.143609
1.424000	742.387858
1.425000	750.984115
1.426000	758.627029
1.427000	768.033404
1.428000	776.151647
1.429000	784.118814
1.430000	794.165991
1.431000	802.128982
1.432000	810.412698
1.433000	819.332529
1.434000	826.664409
1.435000	836.071463
1.436000	843.237208
1.437000	851.839494
1.438000	861.243186
1.439000	869.682170
1.440000	878.129851
1.441000	886.415406
1.442000	896.291760
1.443000	906.173962
1.444000	915.895213
1.445000	926.730261
1.446000	935.971495
1.447000	946.644763
1.448000	956.044114
1.449000	966.718527
1.450000	975.963951
1.451000	987.432761
1.452000	997.471904
1.453000	1006.870253
1.454000	1016.912742
1.455000	1027.109489
1.456000	1036.181242
1.457000	1047.180751
1.458000	1057.059110
1.459000	1066.783376
1.460000	1076.499940
1.461000	1086.376294
1.462000	1096.731986
1.463000	1106.301829
1.464000	1116.492049
1.465000	1126.361711
1.466000	1137.997169
1.467000	1147.719762
1.468000	1158.875369
1.469000	1170.666261
1.470000	1180.383669
1.471000	1191.065122
1.472000	1202.055934
1.473000	1212.893318
1.474000	1224.846005
1.475000	1235.522770
1.476000	1246.045955
1.477000	1257.679409
1.478000	1268.029751
1.479000	1278.553434
1.480000	1289.393335
1.481000	1297.994611
1.482000	1308.352324
1.483000	1318.398159
1.484000	1327.482468
1.485000	1338.160077
1.486000	1348.995290
1.487000	1357.602762
1.488000	1367.962314
1.489000	1377.847033
1.490000	1388.523000
1.491000	1397.769088
1.492000	1409.722272
1.493000	1419.118442
1.494000	1431.715443
1.495000	1443.662432
1.496000	1455.458178
1.497000	1467.101339
1.498000	1478.248414
1.499000	1491.163307
1.500000	1502.318582
1.501000	1513.953874
1.502000	1526.228130
1.503000	1539.452036
1.504000	1550.136172
1.505000	1561.765103
1.506000	1575.157330
1.507000	1587.261757
1.508000	1598.744118
1.509000	1613.090683
1.510000	1625.198456
1.511000	1637.313766
1.512000	1651.658823
1.513000	1664.887914
1.514000	1678.119522
1.515000	1691.346276
1.516000	1705.051541
1.517000	1718.602367
1.518000	1732.468084
1.519000	1747.442729
1.520000	1762.114208
1.521000	1777.253165
1.522000	1791.914606
1.523000	1807.371952
1.524000	1822.198699
1.525000	1837.180368
1.526000	1853.119569
1.527000	1867.944478
1.528000	1883.565954
1.529000	1899.979144
1.530000	1916.400534
1.531000	1932.336556
1.532000	1945.566822
1.533000	1962.938540
1.534000	1977.600660
1.535000	1991.471894
1.536000	2008.208674
1.537000	2022.392946
1.538000	2035.306000
1.539000	2051.565776
1.540000	2065.282256
1.541000	2078.669132
1.542000	2091.421069
1.543000	2104.658376
1.544000	2118.205705
1.545000	2131.439996
1.546000	2144.986331
1.547000	2157.427898
1.548000	2167.954611
1.549000	2180.069424
1.550000	2192.502973
1.551000	2203.508181
1.552000	2216.902263
1.553000	2227.587243
1.554000	2239.700383
1.555000	2250.868561
1.556000	2262.187651
1.557000	2272.718042
1.558000	2283.241062
1.559000	2294.398192
1.560000	2305.562511
1.561000	2313.058554
1.562000	2323.741861
1.563000	2334.269900
1.564000	2346.226446
1.565000	2355.474057
1.566000	2366.483487
1.567000	2376.685947
1.568000	2386.895101
1.569000	2396.463452
1.570000	2405.714906
1.571000	2415.283257
1.572000	2424.369420
1.573000	2434.421135
1.574000	2443.999027
1.575000	2451.657859
1.576000	2458.191531
1.577000	2466.016845
1.578000	2473.837804
1.579000	2480.379509
1.580000	2488.835919
1.581000	2495.381136
1.582000	2502.243582
1.583000	2507.834628
1.584000	2514.376168
1.585000	2519.171988
1.586000	2525.400324
1.587000	2530.831928
1.588000	2534.357026
1.589000	2540.101336
1.590000	2544.103769
1.591000	2547.465068
1.592000	2551.465331
1.593000	2554.029234
1.594000	2558.346213
1.595000	2560.754682
1.596000	2563.957202
1.597000	2565.247866
1.598000	2568.291953
1.599000	2570.863046
1.600000	2572.954468
1.601000	2573.130674
1.602000	2572.978784
1.603000	2575.708159
1.604000	2575.734795
1.605000	2576.236429
1.606000	2576.728521
1.607000	2575.953404
1.608000	2574.699777
1.609000	2574.563954
1.610000	2574.103383
1.611000	2571.577527
1.612000	2569.997476
1.613000	2568.266515
1.614000	2565.583718
1.615000	2561.936213
1.616000	2559.256430
1.617000	2555.125215
1.618000	2553.236815
1.619000	2547.837727
1.620000	2544.987452
1.621000	2540.870134
1.622000	2537.539677
1.623000	2533.258891
1.624000	2529.295500
1.625000	2525.175333
1.626000	2522.800388
1.627000	2519.316004
1.628000	2516.464554
1.629000	2512.819386
1.630000	2508.858496
1.631000	2506.962227
1.632000	2502.523838
1.633000	2499.507247
1.634000	2497.775109
1.635000	2492.540483
1.636000	2490.001905
1.637000	2487.158986
1.638000	2483.661715
1.639000	2479.703840
1.640000	2476.849541
1.641000	2474.795668
1.642000	2469.871728
1.643000	2466.382822
1.644000	2463.853786
1.645000	2457.172580
1.646000	2454.640197
1.647000	2449.395020
1.648000	2445.104693
1.649000	2441.777234
1.650000	2437.639989
1.651000	2432.879020
1.652000	2429.706498
1.653000	2425.739579
1.654000	2421.931108
1.655000	2418.593611
1.656000	2415.429620
1.657000	2411.775241
1.658000	2408.761996
1.659000	2404.156958
1.660000	2399.871816
1.661000	2396.542685
1.662000	2395.123916
1.663000	2390.673302
1.664000	2387.819831
1.665000	2385.440696
1.666000	2379.880989
1.667000	2376.863554
1.668000	2373.685334
1.669000	2372.909341
1.670000	2370.842068
1.671000	2370.060077
1.672000	2367.204271
1.673000	2364.023533
1.674000	2360.530271
1.675000	2358.299861
1.676000	2356.399734
1.677000	2352.428126
1.678000	2349.556583
1.679000	2345.262728
1.680000	2342.874218
1.681000	2339.374263
1.682000	2336.669849
1.683000	2332.537458
1.684000	2328.878044
1.685000	2328.088185
1.686000	2325.383290
1.687000	2322.514249
1.688000	2320.611272
1.689000	2316.463641
1.690000	2315.205310
1.691000	2311.694803
1.692000	2308.669997
1.693000	2306.915746
1.694000	2302.616540
1.695000	2299.267978
1.696000	2296.722858
1.697000	2292.581754
1.698000	2288.760545
1.699000	2285.573612
1.700000	2282.857156
1.701000	2278.403014
1.702000	2272.982807
1.703000	2268.366372
1.704000	2264.059796
1.705000	2258.964354
1.706000	2253.543318
1.707000	2248.760402
1.708000	2244.140455
1.709000	2237.768760
1.710000	2231.549650
1.711000	2225.179793
1.712000	2218.486860
1.713000	2212.429379
1.714000	2205.579007
1.715000	2198.880045
1.716000	2190.275920
1.717000	2183.258237
1.718000	2174.337728
1.719000	2166.371722
1.720000	2158.717925
1.721000	2147.558625
1.722000	2139.432844
1.723000	2129.550627
1.724000	2119.188557
1.725000	2106.592566
1.726000	2094.321309
1.727000	2081.567201
1.728000	2068.820796
1.729000	2055.904562
1.730000	2041.240935
1.731000	2027.361651
1.732000	2011.420097
1.733000	1995.789245
1.734000	1982.080618
1.735000	1962.630728
1.736000	1945.410751
1.737000	1926.591277
1.738000	1907.612361
1.739000	1886.558618
1.740000	1866.150532
1.741000	1843.989521
1.742000	1820.695480
1.743000	1797.257055
1.744000	1771.264797
1.745000	1745.110412
1.746000	1718.322249
1.747000	1690.098058
1.748000	1659.791189
1.749000	1627.892676
1.750000	1594.408865
1.751000	1560.276084
1.752000	1524.710455
1.753000	1485.640831
1.754000	1446.252802
1.755000	1405.430932
1.756000	1363.966088
1.757000	1319.960465
1.758000	1273.231843
1.759000	1223.471375
1.760000	1173.387664
1.761000	1122.992588
1.762000	1069.571199
1.763000	1010.408862
1.764000	948.857502
1.765000	887.142854
1.766000	825.583957
1.767000	764.028240
1.768000	705.814897
1.769000	648.072686
1.770000	593.050459
1.771000	537.547718
1.772000	481.402658
1.773000	426.059360
1.774000	377.078889
1.775000	329.223252
1.776000	288.547960
1.777000	250.265030
1.778000	217.710657
1.779000	183.886244
1.780000	153.075586
1.781000	123.384588
1.782000	96.243911
1.783000	73.392915
1.784000	55.808546
1.785000	38.713720
1.786000	28.174829
1.787000	16.190534
1.788000	5.150870
1.789000	-2.060049
1.790000	-11.173464
1.791000	-13.096699
1.792000	-12.140176
1.793000	-5.435034
1.794000	-0.010668
1.795000	3.681877
1.796000	6.561454
1.797000	6.578517
1.798000	7.858101
1.799000	5.781949
1.800000	4.496336
1.801000	0.499450
1.802000	1.125708
1.803000	-0.952630
1.804000	-0.803889
1.805000	-2.875353
1.806000	-1.117424
1.807000	-0.318173
1.808000	1.124034
1.809000	2.410311
1.810000	5.764555
1.811000	6.405523
1.812000	4.963466
1.813000	3.849685
1.814000	1.613412
1.815000	-0.465589
1.816000	0.646203
1.817000	-1.107219
1.818000	0.004059
1.819000	-0.631558
1.820000	-0.156560
1.821000	2.243678
1.822000	2.089752
1.823000	3.047933
1.824000	3.685057
1.825000	2.252707
1.826000	2.247522
1.827000	2.083391
1.828000	1.282980
1.829000	0.166682
1.830000	-0.631890
1.831000	0.646534
1.832000	0.963581
1.833000	1.604218
1.834000	2.245517
1.835000	2.411321
1.836000	2.565579
1.837000	1.765665
1.838000	1.929299
1.839000	0.812338
1.840000	-0.154887
1.841000	0.481559
1.842000	0.963250
1.843000	0.643851
1.844000	0.965089
1.845000	1.761656
1.846000	1.124366
1.847000	0.968435
1.848000	1.604384
1.849000	2.240332
1.850000	1.767173
1.851000	1.609403
1.852000	0.645690
1.853000	2.559731
1.854000	1.600872
1.855000	2.722354
1.856000	1.599199
1.857000	1.768514
1.858000	1.605559
1.859000	1.923617
1.860000	1.442423
1.861000	1.125708
1.862000	2.079548
1.863000	1.445438
1.864000	0.327633
1.865000	1.917256
1.866000	0.802631
1.867000	0.482901
1.868000	2.551365
1.869000	2.556716
1.870000	1.764837
1.871000	2.391078
1.872000	3.197187
1.873000	1.917421
1.874000	0.646534
1.875000	1.281473
1.876000	1.920436
1.877000	1.120854
1.878000	1.917753
1.879000	-0.149536
1.880000	0.166682
1.881000	1.603886
1.882000	1.760315
1.883000	1.125708
1.884000	2.400454
1.885000	1.602876
1.886000	1.124034
1.887000	1.754798
1.888000	1.282814
1.889000	1.602710
1.890000	0.328643
1.891000	0.642012
1.892000	1.278127
1.893000	1.599199
1.894000	3.038573
1.895000	1.127712
1.896000	1.120854
1.897000	1.917090
1.898000	1.919260
1.899000	1.769690
1.900000	0.327301
1.901000	-0.474120
1.902000	1.920436
1.903000	1.281141
1.904000	1.913744
1.905000	0.007074
1.906000	1.922109
1.907000	1.281307
1.908000	1.755974
1.909000	1.922109
1.910000	1.117508
1.911000	1.755974
1.912000	1.117839
1.913000	1.759486
1.914000	-0.788831
1.915000	0.964592
1.916000	1.443268
1.917000	2.235479
1.918000	1.597360
1.919000	0.805480
1.920000	1.120357
1.921000	0.643685
1.922000	1.277961
1.923000	1.917090
1.924000	0.323624
1.925000	1.603886
1.926000	1.920270
1.927000	1.920768
1.928000	1.601882
1.929000	1.602213
1.930000	1.279965
1.931000	2.076367
1.932000	1.919095
1.933000	0.325131
1.934000	0.322116
1.935000	2.079382
1.936000	0.805646
1.937000	2.718345
1.938000	2.236655
1.939000	1.117342
1.940000	1.921778
1.941000	1.757978
1.942000	1.280976
1.943000	0.966265
1.944000	0.802631
1.945000	2.240845
1.946000	1.443599
1.947000	0.958065
1.948000	1.281307
1.949000	1.282649
1.950000	1.923451
1.951000	1.277298
1.952000	1.596018
1.953000	0.482404
1.954000	2.075870
1.955000	1.446282
1.956000	1.758144
1.957000	2.074197
1.958000	1.920602
1.959000	1.601037
1.960000	1.597857
1.961000	2.397273
1.962000	1.284488
1.963000	2.395600
1.964000	0.643520
1.965000	1.446448
1.966000	1.919095
1.967000	0.964757
1.968000	1.441926
1.969000	0.964426
1.970000	0.800792
1.971000	1.275625
1.972000	0.962421
1.973000	1.120025
1.974000	1.123537
1.975000	2.236489
1.976000	0.326804
1.977000	0.164844
1.978000	1.278805
1.979000	1.120688
1.980000	0.964923
1.981000	0.644861
1.982000	1.756637
1.983000	0.961080
1.984000	0.803807
1.985000	1.121864
1.986000	0.326970
1.987000	0.325297
1.988000	2.076201
1.989000	2.077543
1.990000	2.237996
1.991000	1.761325
1.992000	-0.311994
1.993000	1.125210
1.994000	0.638832
1.995000	1.121864
1.996000	1.440087
1.997000	1.764671
1.998000	0.959904
1.999000	2.239669
2.000000	0.957733
2.001000	0.641515
2.002000	1.275956
2.003000	1.599364
2.004000	0.321785
2.005000	0.640008
2.006000	1.438248
2.007000	1.911739
2.008000	3.036237
2.009000	0.167693
2.010000	0.323789
2.011000	0.482404
2.012000	0.323458
2.013000	2.397273
2.014000	0.483066
2.015000	0.320443
2.016000	1.440584
2.017000	1.599033
2.018000	2.072855
2.019000	0.802631
2.020000	0.646534
2.021000	0.962918
2.022000	1.754798
2.023000	-0.154887
2.024000	1.120025
2.025000	0.642691
2.026000	0.004059
2.027000	1.917090
2.028000	1.117176
2.029000	2.077709
2.030000	2.074528
2.031000	1.121698
2.032000	1.278127
2.033000	0.962918
2.034000	1.441594
2.035000	1.284156
2.036000	2.075704
2.037000	0.641349
2.038000	0.797612
2.039000	1.116845
2.040000	0.323458
2.041000	1.280810
2.042000	1.755974
2.043000	2.236489
2.044000	1.597028
2.045000	0.962587
2.046000	1.911905
2.047000	-0.794513
2.048000	1.125376
2.049000	0.481228
2.050000	1.438082
2.051000	2.395269
2.052000	1.277629
2.053000	1.277795
2.054000	0.647710
2.055000	0.482901
2.056000	0.477716
2.057000	0.958065
2.058000	0.802465
2.059000	0.958065
2.060000	0.643520
2.061000	0.803807
2.062000	0.800626
2.063000	0.159493
2.064000	1.441760
2.065000	1.598701
2.066000	0.323955
2.067000	1.597360
2.068000	1.917090
2.069000	0.801968
2.070000	1.277464
2.071000	1.439590
2.072000	0.482569
2.073000	0.318604
2.074000	2.072855
2.075000	0.958728
2.076000	1.278971
2.077000	2.231801
2.078000	2.074363
2.079000	1.756140
2.080000	0.638169
2.081000	2.872272
2.082000	0.000547
2.083000	0.640339
2.084000	0.803144
2.085000	0.482569
2.086000	0.958396
2.087000	0.962587
2.088000	1.598536
2.089000	1.120522
2.090000	0.957899
2.091000	2.552707
2.092000	1.436244
2.093000	3.032725
2.094000	0.802465
2.095000	0.643188
2.096000	1.277464
2.097000	0.804138
2.098000	0.962587
2.099000	1.593003
2.100000	1.597028
2.101000	1.592506
2.102000	0.638335
2.103000	1.918432
2.104000	0.640008
2.105000	0.801124
2.106000	2.236157
2.107000	1.754467
2.108000	0.320277
2.109000	-0.154042
2.110000	0.479389
2.111000	1.756140
2.112000	1.757978
2.113000	0.319780
2.114000	0.802300
2.115000	0.633647
2.116000	1.279137
2.117000	0.641018
2.118000	1.273952
2.119000	0.803475
2.120000	1.751618
2.121000	0.480896
2.122000	1.598536
2.123000	0.957733
2.124000	0.957899
2.125000	-0.152038
2.126000	0.157985
2.127000	0.798953
2.128000	1.915085
2.129000	0.957733
2.130000	1.758641
2.131000	0.646534
2.132000	1.284156
2.133000	0.641515
2.134000	1.590833
2.135000	1.274449
2.136000	0.639676
2.137000	1.922788
2.138000	0.480896
2.139000	0.162839
2.140000	1.118684
2.141000	2.393264
2.142000	0.798788
2.143000	1.281307
2.144000	2.077212
2.145000	1.441263
2.146000	1.760993
2.147000	0.798788
2.148000	1.919773
2.149000	1.439590
2.150000	1.438248
2.151000	2.238328
2.152000	1.436907
2.153000	0.802134
2.154000	0.482238
2.155000	2.078719
2.156000	0.797446
2.157000	1.118352
2.158000	1.277795
2.159000	-0.954800
2.160000	0.640008
2.161000	0.007571
2.162000	0.000050
2.163000	1.118352
2.164000	0.162507
2.165000	1.754301
2.166000	2.395600
2.167000	0.961245
2.168000	0.962421
2.169000	0.801968
2.170000	0.957733
2.171000	1.280478
2.172000	0.323789
2.173000	0.959572
2.174000	1.278805
2.175000	1.278640
2.176000	1.590501
2.177000	1.599033
2.178000	1.277961
2.179000	0.637672
2.180000	1.275625
2.181000	0.321453
2.182000	1.597525
2.183000	0.483745
2.184000	0.795441
2.185000	0.798622
2.186000	0.960582
2.187000	0.800461
2.188000	1.275625
2.189000	0.480896
2.190000	-0.634226
2.191000	1.436078
2.192000	0.959738
2.193000	2.074197
2.194000	1.431390
2.195000	0.640173
2.196000	0.792427
2.197000	0.798788
2.198000	1.121201
2.199000	-0.630714
2.200000	1.114674
2.201000	1.437751
2.202000	0.802134
2.203000	1.123206
2.204000	0.800792
2.205000	1.438082
2.206000	1.751286
2.207000	1.593516
2.208000	0.642691
2.209000	1.596697
2.210000	1.436575
2.211000	1.757813
2.212000	0.477218
2.213000	1.118186
2.214000	0.643022
2.215000	1.752793
2.216000	1.756140
2.217000	0.799963
2.218000	0.964426
2.219000	0.961080
2.220000	1.911242
2.221000	1.596697
2.222000	0.957070
2.223000	0.800129
2.224000	1.277132
2.225000	0.320112
2.226000	0.636330
2.227000	0.162839
2.228000	1.595355
2.229000	1.598701
2.230000	0.798788
2.231000	1.433560
2.232000	1.758144
2.233000	1.438248
2.234000	-0.314330
2.235000	1.118352
2.236000	1.915085
2.237000	-0.319515
2.238000	1.433063
2.239000	0.642525
2.240000	1.438248
2.241000	0.324965
2.242000	1.275791
2.243000	0.316765
2.244000	0.480565
2.245000	1.597028
2.246000	0.636496
2.247000	-0.153214
2.248000	1.116679
2.249000	2.714833
2.250000	1.120522
2.251000	0.479057
2.252000	1.120357
2.253000	1.599380
2.254000	0.962918
2.255000	0.956060
2.256000	0.162342
2.257000	1.122874
2.258000	1.273952
2.259000	1.755808
2.260000	1.592175
2.261000	1.436907
2.262000	-0.155218
2.263000	1.280313
2.264000	0.634325
2.265000	2.075373
2.266000	1.277629
2.267000	1.123371
2.268000	1.273786
2.269000	1.282151
2.270000	2.232811
2.271000	1.278971
2.272000	1.434570
2.273000	1.758823
2.274000	1.275459
2.275000	1.113996
2.276000	1.593350
2.277000	-0.158233
2.278000	0.321453
2.279000	2.075704
2.280000	1.762169
2.281000	1.911739
2.282000	0.800129
2.283000	0.164512
2.284000	8.156009
2.285000	105.703768
2.286000	192.482772
2.287000	332.486909
2.288000	349.136197
2.289000	304.780244
2.290000	381.433247
2.291000	620.768869
2.292000	915.355027
2.293000	1183.903073
2.294000	1488.739098
2.295000	1765.705207
2.296000	1903.150056
2.297000	1780.295549
2.298000	1542.474149
2.299000	1349.774583
2.300000	1209.927760
2.301000	1076.509731
2.302000	953.961072
2.303000	911.213851
2.304000	905.070299
2.305000	908.516367
2.306000	906.387007
2.307000	945.758533
2.308000	1010.157492
2.309000	1056.956132
2.310000	1079.141956
2.311000	1097.973670
2.312000	1121.125693
2.313000	1122.686857
2.314000	1111.145891
2.315000	1097.494631
2.316000	1095.813153
2.317000	1097.686045
2.318000	1097.377529
2.319000	1102.552633
2.320000	1124.554730
2.321000	1157.293192
2.322000	1188.912855
2.323000	1226.400788
2.324000	1266.900323
2.325000	1312.339054
2.326000	1357.309660
2.327000	1411.753763
2.328000	1497.811830
2.329000	1636.707449
2.330000	1795.832928
2.331000	1875.316111
2.332000	1937.405826
2.333000	2658.891277
2.334000	4333.816830
2.335000	4796.029361
2.336000	3595.204158
2.337000	2175.057413
2.338000	2657.850360
2.339000	3766.016124
2.340000	4750.469832
2.341000	4378.458007
2.342000	3517.297075
2.343000	3360.605524
2.344000	3919.029624
2.345000	4541.726496
2.346000	4293.151545
2.347000	3826.479119
2.348000	3609.518587
2.349000	3987.597165
2.350000	4064.701141
2.351000	3865.031228
2.352000	3387.705144
2.353000	3322.358492
2.354000	3349.401001
2.355000	3419.303515
2.356000	3166.861820
2.357000	2952.051362
2.358000	2842.107880
2.359000	2865.186435
2.360000	2825.474336
2.361000	2669.626855
2.362000	2524.211136
2.363000	2418.149551
2.364000	2428.857530
2.365000	2366.561349
2.366000	2322.031075
2.367000	2198.395641
2.368000	2176.347588
2.369000	2129.762720
2.370000	2134.021092
2.371000	2078.390941
2.372000	2045.263898
2.373000	2006.192631
2.374000	1987.772732
2.375000	1979.824996
2.376000	1961.429498
2.377000	1963.087088
2.378000	1950.764145
2.379000	1963.583520
2.380000	1958.568719
2.381000	1974.275224
2.382000	1982.941601
2.383000	2004.526565
2.384000	2024.013626
2.385000	2044.311303
2.386000	2071.429582
2.387000	2102.251786
2.388000	2137.019521
2.389000	2169.097057
2.390000	2207.057589
2.391000	2241.676417
2.392000	2278.521977
2.393000	2310.887292
2.394000	2348.039861
2.395000	2379.288527
2.396000	2411.004157
2.397000	2438.102162
2.398000	2461.360554
2.399000	2485.570600
2.400000	2508.503730
2.401000	2531.267196
2.402000	2549.896416
2.403000	2567.572641
2.404000	2582.680290
2.405000	2597.635023
2.406000	2606.687029
2.407000	2611.765227
2.408000	2614.750692
2.409000	2616.631910
2.410000	2614.997595
2.411000	2611.132175
2.412000	2602.327411
2.413000	2592.401661
2.414000	2582.633184
2.415000	2570.158620
2.416000	2556.410320
2.417000	2540.901574
2.418000	2524.757708
2.419000	2507.824488
2.420000	2490.409900
2.421000	2472.352506
2.422000	2455.897954
2.423000	2436.892418
2.424000	2421.867201
2.425000	2404.296683
2.426000	2388.964127
2.427000	2376.025116
2.428000	2363.724390
2.429000	2351.739220
2.430000	2343.101270
2.431000	2333.512494
2.432000	2325.036173
2.433000	2320.223953
2.434000	2312.379058
2.435000	2309.000696
2.436000	2303.540816
2.437000	2298.723743
2.438000	2294.687327
2.439000	2289.057286
2.440000	2282.314626
2.441000	2277.958653
2.442000	2269.939241
2.443000	2262.390306
2.444000	2251.819563
2.445000	2244.437111
2.446000	2237.221622
2.447000	2227.604222
2.448000	2219.271607
2.449000	2208.863669
2.450000	2200.051037
2.451000	2191.721437
2.452000	2182.915662
2.453000	2172.671358
2.454000	2164.824111
2.455000	2155.693090
2.456000	2148.164745
2.457000	2138.398107
2.458000	2128.791258
2.459000	2121.730706
2.460000	2112.769514
2.461000	2104.918424
2.462000	2096.910061
2.463000	2087.464826
2.464000	2079.770843
2.465000	2072.554692
2.466000	2064.381867
2.467000	2055.737390
2.468000	2047.724008
2.469000	2039.872752
2.470000	2032.820069
2.471000	2023.855861
2.472000	2015.210043
2.473000	2006.720834
2.474000	1998.546154
2.475000	1990.543987
2.476000	1980.938315
2.477000	1973.569247
2.478000	1965.243837
2.479000	1958.512557
2.480000	1949.705291
2.481000	1941.388247
2.482000	1933.697610
2.483000	1926.972359
2.484000	1918.332405
2.485000	1910.327222
2.486000	1903.123130
2.487000	1895.120963
2.488000	1887.592121
2.489000	1881.822714
2.490000	1873.818542
2.491000	1867.884674
2.492000	1859.561269
2.493000	1856.655222
2.494000	1849.293691
2.495000	1842.717679
2.496000	1837.106390
2.497000	1830.861157
2.498000	1824.772021
2.499000	1818.844016
2.500000	1811.953956
2.501000	1806.821177
2.502000	1800.896171
2.503000	1796.083454
2.504000	1790.632784
2.505000	1785.343230
2.506000	1780.379767
2.507000	1774.765298
2.508000	1768.041388
2.509000	1764.988455
2.510000	1759.226420
2.511000	1754.097319
2.512000	1747.691964
2.513000	1741.927246
2.514000	1736.959608
2.515000	1730.229835
2.516000	1724.949491
2.517000	1717.748745
2.518000	1710.713305
2.519000	1704.945738
2.520000	1697.103195
2.521000	1689.427284
2.522000	1681.272201
2.523000	1675.820520
2.524000	1667.348043
2.525000	1660.937337
2.526000	1653.265452
2.527000	1644.307771
2.528000	1635.515563
2.529000	1627.830111
2.530000	1620.000456
2.531000	1612.158395
2.532000	1606.074790
2.533000	1597.758244
2.534000	1589.611194
2.535000	1580.333783
2.536000	1574.088219
2.537000	1566.096422
2.538000	1558.423194
2.539000	1551.855216
2.540000	1545.452379
2.541000	1538.100887
2.542000	1531.534582
2.543000	1525.609079
2.544000	1518.575313
2.545000	1512.810263
2.546000	1506.561849
2.547000	1500.329172
2.548000	1493.287703
2.549000	1486.411044
2.550000	1481.277421
2.551000	1475.041563
2.552000	1467.681871
2.553000	1462.559628
2.554000	1454.560310
2.555000	1449.434721
2.556000	1442.081058
2.557000	1434.404485
2.558000	1428.320037
2.559000	1421.124475
2.560000	1414.405586
2.561000	1408.007436
2.562000	1399.530784
2.563000	1392.013290
2.564000	1384.976675
2.565000	1376.664816
2.566000	1367.879979
2.567000	1360.042108
2.568000	1353.802573
2.569000	1344.212124
2.570000	1335.267663
2.571000	1328.384311
2.572000	1320.070447
2.573000	1311.917037
2.574000	1302.816644
2.575000	1294.666580
2.576000	1285.715261
2.577000	1277.247305
2.578000	1270.850497
2.579000	1262.695579
2.580000	1253.280145
2.581000	1245.921794
2.582000	1237.773900
2.583000	1229.303940
2.584000	1221.634556
2.585000	1213.165938
2.586000	1204.707855
2.587000	1196.552771
2.588000	1186.816430
2.589000	1179.623221
2.590000	1171.004022
2.591000	1162.847763
2.592000	1154.543606
2.593000	1146.398396
2.594000	1137.767817
2.595000	1130.272452
2.596000	1123.236334
2.597000	1115.256430
2.598000	1107.097835
2.599000	1099.589236
2.600000	1092.879722
2.601000	1085.693370
2.602000	1078.024665
2.603000	1070.827928
2.604000	1064.921508
2.605000	1059.012421
2.606000	1053.565926
2.607000	1045.584349
2.608000	1039.029597
2.609000	1031.839071
2.610000	1026.403293
2.611000	1020.962164
2.612000	1013.295961
2.613000	1005.311370
2.614000	997.796922
2.615000	991.574284
2.616000	985.019194
2.617000	976.229172
2.618000	967.604954
2.619000	961.532217
2.620000	954.497787
2.621000	947.148978
2.622000	937.882616
2.623000	929.259574
2.624000	923.822952
2.625000	917.267696
2.626000	908.799740
2.627000	902.886296
2.628000	894.731378
2.629000	889.454712
2.630000	880.828323
2.631000	875.545627
2.632000	867.557524
2.633000	859.564566
2.634000	855.088658
2.635000	847.733488
2.636000	842.613250
2.637000	836.059169
2.638000	830.304671
2.639000	824.707430
2.640000	818.949751
2.641000	813.353355
2.642000	808.076191
2.643000	802.479628
2.644000	798.959399
2.645000	792.407157
2.646000	787.451563
2.647000	785.202899
2.648000	779.611687
2.649000	774.972311
2.650000	770.978425
2.651000	765.860207
2.652000	761.701014
2.653000	756.423188
2.654000	754.026611
2.655000	749.712663
2.656000	746.196609
2.657000	741.558408
2.658000	738.044706
2.659000	733.094975
2.660000	730.527410
2.661000	726.700669
2.662000	720.151273
2.663000	717.275192
2.664000	711.688668
2.665000	707.853064
2.666000	704.492112
2.667000	700.345144
2.668000	696.351589
2.669000	691.401859
2.670000	687.083389
2.671000	682.138346
2.672000	677.675656
2.673000	671.926509
2.674000	667.612561
2.675000	662.510261
2.676000	657.561359
2.677000	651.978529
2.678000	647.184894
2.679000	643.354642
2.680000	638.889948
2.681000	635.691122
2.682000	631.063639
2.683000	628.030120
2.684000	625.320174
2.685000	620.530233
2.686000	617.334091
2.687000	615.100651
2.688000	613.343890
2.689000	613.178583
2.690000	608.084136
2.691000	606.645093
2.692000	606.806044
2.693000	609.036966
2.694000	607.441661
2.695000	605.210573
2.696000	604.886817
2.697000	603.619774
2.698000	602.346700
2.699000	601.699537
2.700000	600.431996
2.701000	599.151568
2.702000	597.563949
2.703000	595.491641
2.704000	595.172574
2.705000	593.256694
2.706000	591.504961
2.707000	589.752698
2.708000	587.203222
2.709000	585.451307
2.710000	583.059600
2.711000	581.629088
2.712000	578.921329
2.713000	576.845674
2.714000	575.251363
2.715000	573.018934
2.716000	571.907655
2.717000	569.358841
2.718000	568.886526
2.719000	565.531272
2.720000	564.259541
2.721000	563.309047
2.722000	562.667069
2.723000	559.635901
2.724000	558.680222
2.725000	557.883655
2.726000	556.454485
2.727000	556.134589
2.728000	553.746394
2.729000	552.153922
2.730000	551.674748
2.731000	549.765064
2.732000	549.280358
2.733000	548.483956
2.734000	545.940162
2.735000	545.146278
2.736000	544.660065
2.737000	543.226886
2.738000	542.268855
2.739000	539.724398
2.740000	540.835676
2.741000	538.439613
2.742000	537.488787
2.743000	536.690547
2.744000	534.464809
2.745000	533.824339
2.746000	532.874342
2.747000	533.504277
2.748000	531.430959
2.749000	530.479802
2.750000	528.719687
2.751000	528.721360
2.752000	528.406981
2.753000	526.015439
2.754000	525.538602
2.755000	523.784517
2.756000	524.104579
2.757000	524.423646
2.758000	521.557438
2.759000	521.709360
2.760000	520.280024
2.761000	518.839308
2.762000	519.167404
2.763000	518.367490
2.764000	517.411977
2.765000	516.616917
2.766000	515.819853
2.767000	515.976281
2.768000	514.230064
2.769000	513.754568
2.770000	512.473295
2.771000	512.153731
2.772000	511.840527
2.773000	510.878487
2.774000	511.680074
2.775000	511.201730
2.776000	510.086442
2.777000	509.601239
2.778000	508.969134
2.779000	509.606424
2.780000	510.559088
2.781000	510.083261
2.782000	510.560762
2.783000	510.558757
2.784000	511.037764
2.785000	509.765370
2.786000	511.994951
2.787000	513.271867
2.788000	511.994454
2.789000	512.001477
2.790000	513.432486
2.791000	512.952137
2.792000	514.703886
2.793000	513.583232
2.794000	515.178040
2.795000	515.816838
2.796000	515.660560
2.797000	517.251856
2.798000	517.890819
2.799000	518.692737
2.800000	519.482612
2.801000	519.164555
2.802000	520.122404
2.803000	521.400663
2.804000	521.554921
2.805000	523.309519
2.806000	523.944126
2.807000	525.379144
2.808000	525.217862
2.809000	526.814840
2.810000	525.855981
2.811000	527.295189
2.812000	528.565082
2.813000	530.317328
2.814000	531.114227
2.815000	531.112388
2.816000	532.387300
2.817000	533.505769
2.818000	534.141883
2.819000	535.421483
2.820000	536.690200
2.821000	537.008091
2.822000	537.170880
2.823000	539.711328
2.824000	542.106216
2.825000	540.985230
2.826000	543.379952
2.827000	544.654367
2.828000	546.086039
2.829000	547.844646
2.830000	548.002416
2.831000	549.757843
2.832000	551.508084
2.833000	553.575373
2.834000	555.012080
2.835000	554.538921
2.836000	556.607385
2.837000	563.796585
2.838000	571.128813
2.839000	575.741901
2.840000	574.637662
2.841000	572.558646
2.842000	574.789403
2.843000	582.296992
2.844000	590.895435
2.845000	593.608379
2.846000	595.846838
2.847000	596.161549
2.848000	601.264709
2.849000	606.853049
2.850000	613.863541
2.851000	616.575657
2.852000	620.884420
2.853000	623.435073
2.854000	629.494409
2.855000	634.602423
2.856000	639.858996
2.857000	644.171271
2.858000	649.281459
2.859000	656.944134
2.860000	664.754722
2.861000	672.573842
2.862000	680.559759
2.863000	688.861580
2.864000	699.720066
2.865000	710.246945
2.866000	722.859367
2.867000	734.198038
2.868000	745.524996
2.869000	754.800734
2.870000	765.484554
2.871000	775.060607
2.872000	786.716009
2.873000	798.688110
2.874000	806.199724
2.875000	817.845584
2.876000	827.738511
2.877000	836.359217
2.878000	846.086001
2.879000	852.954130
2.880000	861.245398
2.881000	870.658994
2.882000	880.072756
2.883000	888.372887
2.884000	896.344757
2.885000	902.246158
2.886000	910.532739
2.887000	917.866987
2.888000	923.287873
2.889000	928.702547
2.890000	933.966658
2.891000	938.905687
2.892000	945.921199
2.893000	952.934541
2.894000	956.596141
2.895000	960.897880
2.896000	965.206808
2.897000	969.821751
2.898000	976.671459
2.899000	982.729122
2.900000	986.238137
2.901000	992.451565
2.902000	998.189664
2.903000	1005.363127
2.904000	1010.776476
2.905000	1013.969951
2.906000	1021.781865
2.907000	1030.071461
2.908000	1035.810238
2.909000	1039.634130
2.910000	1045.375574
2.911000	1051.908914
2.912000	1058.447258
2.913000	1066.581420
2.914000	1068.652071
2.915000	1073.759571
2.916000	1077.104139
2.917000	1083.166490
2.918000	1086.836621
2.919000	1089.544894
2.920000	1091.777324
2.921000	1094.494790
2.922000	1097.359325
2.923000	1099.273698
2.924000	1101.358231
2.925000	1099.597950
2.926000	1100.085158
2.927000	1100.564844
2.928000	1100.569697
2.929000	1100.413435
2.930000	1098.341458
2.931000	1098.347819
2.932000	1098.026747
2.933000	1095.966482
2.934000	1096.133628
2.935000	1094.540327
2.936000	1094.861233
2.937000	1096.135964
2.938000	1097.896923
2.939000	1094.388753
2.940000	1092.953222
2.941000	1095.030052
2.942000	1097.898762
2.943000	1096.789322
2.944000	1095.189164
2.945000	1094.713171
2.946000	1096.151882
2.947000	1096.632231
2.948000	1096.306471
2.949000	1094.396455
2.950000	1092.320288
2.951000	1091.360087
2.952000	1090.724635
2.953000	1086.738617
2.954000	1084.189638
2.955000	1081.160143
2.956000	1081.315064
2.957000	1077.648777
2.958000	1074.305068
2.959000	1072.388013
2.960000	1070.158598
2.961000	1066.815055
2.962000	1063.787565
2.963000	1062.989490
2.964000	1060.590925
2.965000	1057.565606
2.966000	1055.968793
2.967000	1054.379336
2.968000	1052.630104
2.969000	1051.995497
2.970000	1051.677440
2.971000	1049.768087
2.972000	1049.125777
2.973000	1048.171440
2.974000	1047.212415
2.975000	1047.376380
2.976000	1046.102975
2.977000	1045.618783
2.978000	1044.666118
2.979000	1044.830083
2.980000	1044.830249
2.981000	1042.435527
2.982000	1044.352583
2.983000	1043.391885
2.984000	1042.117139
2.985000	1042.595318
2.986000	1041.479683
2.987000	1042.603352
2.988000	1040.846252
2.989000	1040.531209
2.990000	1039.729788
2.991000	1037.811904
2.992000	1037.335066
2.993000	1038.137166
2.994000	1035.585669
2.995000	1034.791785
2.996000	1033.995549
2.997000	1033.034685
2.998000	1031.608032
2.999000	1030.806611
3.000000	1028.893746
3.001000	1026.981047
3.002000	1025.870613
3.003000	1025.709994
3.004000	1022.204325
3.005000	1021.407592
3.006000	1019.647477
3.007000	1017.896241
3.008000	1015.025858
3.009000	1013.908219
3.010000	1011.842769
3.011000	1009.610173
3.012000	1008.490861
3.013000	1005.463205
3.014000	1003.073005
3.015000	1000.204958
3.016000	996.696954
3.017000	996.531813
3.018000	993.822214
3.019000	990.632764
3.020000	987.765727
3.021000	986.488811
3.022000	983.143264
3.023000	979.628566
3.024000	977.396468
3.025000	974.690216
3.026000	972.926258
3.027000	970.379780
3.028000	967.825615
3.029000	963.683666
3.030000	963.832905
3.031000	959.374241
3.032000	958.249412
3.033000	954.583124
3.034000	952.340987
3.035000	950.584053
3.036000	948.195195
3.037000	945.159339
3.038000	943.246806
3.039000	942.127990
3.040000	939.891551
3.041000	938.611447
3.042000	936.216725
3.043000	935.092227
3.044000	933.820496
3.045000	932.697174
3.046000	931.261975
3.047000	929.978200
3.048000	928.540499
3.049000	926.624619
3.050000	925.346029
3.051000	925.827554
3.052000	922.471455
3.053000	921.348299
3.054000	920.066529
3.055000	918.625813
3.056000	919.258416
3.057000	916.070473
3.058000	915.106760
3.059000	914.463787
3.060000	913.503586
3.061000	911.587706
3.062000	908.071667
3.063000	907.751937
3.064000	907.583616
3.065000	905.506454
3.066000	904.069250
3.067000	903.261634
3.068000	901.032219
3.069000	900.227617
3.070000	898.948862
3.071000	897.673452
3.072000	897.345522
3.073000	895.109581
3.074000	893.988926
3.075000	893.987585
3.076000	892.065012
3.077000	891.264767
3.078000	890.624131
3.079000	889.024303
3.080000	889.020791
3.081000	887.424642
3.082000	886.941112
3.083000	885.338436
3.084000	885.497216
3.085000	884.854575
3.086000	883.895549
3.087000	881.657090
3.088000	882.761842
3.089000	880.847469
3.090000	880.690197
3.091000	880.524393
3.092000	878.929088
3.093000	877.803083
3.094000	878.913682
3.095000	876.843213
3.096000	877.950979
3.097000	877.151232
3.098000	877.149393
3.099000	876.667702
3.100000	876.342952
3.101000	876.815267
3.102000	875.859754
3.103000	875.530482
3.104000	875.532156
3.105000	876.795687
3.106000	876.792672
3.107000	875.835155
3.108000	876.628542
3.109000	877.741493
3.110000	877.259637
3.111000	876.458216
3.112000	877.251105
3.113000	878.040980
3.114000	878.516642
3.115000	876.921502
3.116000	877.236710
3.117000	878.985279
3.118000	879.299824
3.119000	877.863796
3.120000	878.976416
3.121000	879.616374
3.122000	878.803573
3.123000	880.558502
3.124000	880.394537
3.125000	880.712595
3.126000	879.275059
3.127000	881.026974
3.128000	883.095770
3.129000	882.292179
3.130000	881.819019
3.131000	882.937835
3.132000	883.722856
3.133000	883.404965
3.134000	884.679877
3.135000	885.789482
3.136000	884.838988
3.137000	885.633717
3.138000	884.835823
3.139000	885.631878
3.140000	887.540734
3.141000	886.260968
3.142000	887.218999
3.143000	886.264827
3.144000	887.062224
3.145000	888.500603
3.146000	888.974426
3.147000	889.928597
3.148000	889.762628
3.149000	890.401923
3.150000	890.726009
3.151000	893.110361
3.152000	894.703827
3.153000	893.108522
3.154000	895.495044
3.155000	897.247456
3.156000	899.636993
3.157000	900.908724
3.158000	903.936546
3.159000	904.574499
3.160000	907.280585
3.161000	908.712770
3.162000	910.619274
3.163000	911.898195
3.164000	912.061332
3.165000	914.925685
3.166000	915.238060
3.167000	918.108443
3.168000	919.699739
3.169000	921.922959
3.170000	923.363509
3.171000	926.223688
3.172000	926.538399
3.173000	929.251343
3.174000	930.051091
3.175000	932.753666
3.176000	932.750485
3.177000	934.987769
3.178000	936.894439
3.179000	937.843591
3.180000	939.600028
3.181000	940.398269
3.182000	941.992067
3.183000	943.263964
3.184000	943.420739
3.185000	945.328419
3.186000	946.608682
3.187000	946.764779
3.188000	947.883926
3.189000	949.641026
3.190000	950.438935
3.191000	950.596539
3.192000	950.751807
3.193000	951.550213
3.194000	953.146694
3.195000	953.146197
3.196000	955.857800
3.197000	955.216832
3.198000	955.539411
3.199000	956.971928
3.200000	957.773514
3.201000	956.817338
3.202000	957.610559
3.203000	958.893837
3.204000	958.255702
3.205000	958.892495
3.206000	960.019842
3.207000	960.496679
3.208000	960.497011
3.209000	960.655625
3.210000	961.455373
3.211000	960.820766
3.212000	962.259974
3.213000	962.105716
3.214000	961.946439
3.215000	962.421935
3.216000	962.906806
3.217000	963.388663
3.218000	962.752714
3.219000	963.549447
3.220000	963.394858
3.221000	964.512994
3.222000	964.196279
3.223000	964.043860
3.224000	965.953047
3.225000	965.638005
3.226000	966.280480
3.227000	963.893793
3.228000	965.648044
3.229000	966.449133
3.230000	966.768698
3.231000	965.659092
3.232000	965.499981
3.233000	964.704258
3.234000	966.304582
3.235000	964.708101
3.236000	966.621811
3.237000	964.720823
3.238000	963.924256
3.239000	965.197826
3.240000	965.043568
3.241000	964.572595
3.242000	964.733214
3.243000	965.214739
3.244000	966.173930
3.245000	965.867253
3.246000	965.389918
3.247000	966.348778
3.248000	966.350285
3.249000	965.554728
3.250000	966.994434
3.251000	967.000463
3.252000	967.639758
3.253000	967.801718
3.254000	968.287931
3.255000	969.886748
3.256000	969.252307
3.257000	971.802463
3.258000	968.778153
3.259000	970.539775
3.260000	970.538268
3.261000	970.065953
3.262000	971.023139
3.263000	972.142618
3.264000	972.938522
3.265000	972.466870
3.266000	972.625484
3.267000	973.432090
3.268000	972.633850
3.269000	972.948395
3.270000	974.554583
3.271000	975.511604
3.272000	975.192205
3.273000	974.720056
3.274000	975.834349
3.275000	975.036108
3.276000	974.243053
3.277000	974.880177
3.278000	973.768899
3.279000	973.452183
3.280000	974.416062
3.281000	974.419077
3.282000	974.908123
3.283000	975.066903
3.284000	974.271843
3.285000	973.315833
3.286000	974.112566
3.287000	972.848537
3.288000	973.002960
3.289000	973.805723
3.290000	972.530314
3.291000	972.540187
3.292000	971.586678
3.293000	970.787940
3.294000	970.473064
3.295000	969.519224
3.296000	968.565052
3.297000	967.771168
3.298000	967.140239
3.299000	966.825693
3.300000	965.400201
3.301000	965.399373
3.302000	963.005148
3.303000	963.488512
3.304000	962.373722
3.305000	959.670816
3.306000	959.676166
3.307000	958.397577
3.308000	957.452947
3.309000	956.335141
3.310000	955.858304
3.311000	954.587914
3.312000	953.952463
3.313000	953.319363
3.314000	952.839180
3.315000	952.368206
3.316000	951.093129
3.317000	950.462034
3.318000	950.306103
3.319000	949.670154
3.320000	947.597002
3.321000	948.242160
3.322000	947.763981
3.323000	946.817512
3.324000	945.696692
3.325000	945.387664
3.326000	945.228055
3.327000	945.231070
3.328000	944.758076
3.329000	943.486526
3.330000	942.692460
3.331000	942.536032
3.332000	943.015040
3.333000	942.387291
3.334000	943.186707
3.335000	942.068405
3.336000	941.758713
3.337000	942.078775
3.338000	940.810058
3.339000	941.127950
3.340000	940.337412
3.341000	940.178300
3.342000	938.425888
3.343000	938.748965
3.344000	938.914271
3.345000	937.322478
3.346000	935.893308
3.347000	936.372150
3.348000	935.736036
3.349000	934.945498
3.350000	936.381194
3.351000	934.794255
3.352000	933.996346
3.353000	932.724448
3.354000	932.884901
3.355000	931.455731
3.356000	931.465273
3.357000	930.983582
3.358000	931.466780
3.359000	929.238873
3.360000	929.555091
3.361000	927.812883
3.362000	927.496168
3.363000	927.181788
3.364000	926.704122
3.365000	925.106465
3.366000	924.319605
3.367000	923.214522
3.368000	923.696047
3.369000	922.742372
3.370000	920.994980
3.371000	919.721244
3.372000	919.248266
3.373000	919.568327
3.374000	917.822442
3.375000	917.986076
3.376000	917.841856
3.377000	916.409506
3.378000	916.572974
3.379000	914.664962
3.380000	912.279948
3.381000	912.119495
3.382000	911.966247
3.383000	911.012572
3.384000	911.502463
3.385000	910.071289
3.386000	908.322057
3.387000	908.488871
3.388000	908.008853
3.389000	907.864303
3.390000	905.951272
3.391000	905.160734
3.392000	904.213420
3.393000	905.804882
3.394000	904.221454
3.395000	903.588189
3.396000	901.999908
3.397000	902.325999
3.398000	901.690216
3.399000	900.261891
3.400000	899.463982
3.401000	900.748435
3.402000	899.479387
3.403000	899.961409
3.404000	898.540273
3.405000	899.174217
3.406000	898.857833
3.407000	899.498470
3.408000	898.711444
3.409000	898.391382
3.410000	898.878589
3.411000	898.724663
3.412000	896.812642
3.413000	898.571747
3.414000	897.781374
3.415000	896.825530
3.416000	899.382378
3.417000	898.110315
3.418000	897.792257
3.419000	898.757644
3.420000	897.955394
3.421000	899.397949
3.422000	897.804648
3.423000	897.647375
3.424000	897.973135
3.425000	898.605737
3.426000	899.568275
3.427000	899.730235
3.428000	899.891351
3.429000	900.213433
3.430000	899.418705
3.431000	900.213599
3.432000	900.375559
3.433000	899.582172
3.434000	900.218121
3.435000	901.019542
3.436000	900.699646
3.437000	901.017869
3.438000	901.502906
3.439000	900.706173
3.440000	901.345633
3.441000	902.468458
3.442000	902.628414
3.443000	901.989119
3.444000	902.149903
3.445000	903.104075
3.446000	902.303664
3.447000	901.997650
3.448000	901.995811
3.449000	901.997484
3.450000	901.200254
3.451000	901.200420
3.452000	902.802417
3.453000	901.523330
3.454000	900.565978
3.455000	900.734631
3.456000	899.613480
3.457000	899.940068
3.458000	899.142838
3.459000	900.257297
3.460000	899.467753
3.461000	900.108390
3.462000	899.313164
3.463000	898.834322
3.464000	898.843185
3.465000	897.720195
3.466000	896.296044
3.467000	897.886677
3.468000	896.776906
3.469000	897.420558
3.470000	895.506517
3.471000	895.350586
3.472000	894.080859
3.473000	893.928108
3.474000	894.408126
3.475000	892.339330
3.476000	892.655382
3.477000	892.181726
3.478000	890.911667
3.479000	891.231232
3.480000	890.917018
3.481000	889.642950
3.482000	888.849232
3.483000	888.054337
3.484000	887.259277
3.485000	886.464217
3.486000	886.469402
3.487000	885.677523
3.488000	883.931969
3.489000	884.410148
3.490000	883.450278
3.491000	881.543608
3.492000	881.542945
3.493000	880.266691
3.494000	879.633426
3.495000	878.845390
3.496000	878.206592
3.497000	878.366714
3.498000	877.251592
3.499000	876.782457
3.500000	875.982710
3.501000	874.556886
3.502000	873.755299
3.503000	872.801790
3.504000	873.286662
3.505000	872.485406
3.506000	871.540445
3.507000	872.651723
3.508000	872.338851
3.509000	869.630926
3.510000	870.109768
3.511000	869.475161
3.512000	869.472146
3.513000	868.681608
3.514000	869.955178
3.515000	868.678427
3.516000	869.163299
3.517000	868.054869
3.518000	867.410887
3.519000	867.886382
3.520000	866.304462
3.521000	868.053528
3.522000	867.414398
3.523000	867.576525
3.524000	866.939069
3.525000	866.627372
3.526000	867.425282
3.527000	866.470100
3.528000	865.351963
3.529000	866.148531
3.530000	866.632060
3.531000	865.677889
3.532000	865.196198
3.533000	865.675205
3.534000	864.243368
3.535000	865.997453
3.536000	864.563264
3.537000	865.200886
3.538000	864.399133
3.539000	864.240022
3.540000	863.929320
3.541000	864.240685
3.542000	864.245207
3.543000	863.447298
3.544000	864.566445
3.545000	864.563098
3.546000	862.807671
3.547000	864.084091
3.548000	862.968125
3.549000	862.649057
3.550000	862.650896
3.551000	862.652569
3.552000	861.857343
3.553000	860.898318
3.554000	862.491785
3.555000	861.375487
3.556000	859.311710
3.557000	859.623075
3.558000	857.066227
3.559000	857.230192
3.560000	856.274513
3.561000	854.681212
3.562000	854.523608
3.563000	852.288495
3.564000	853.402457
3.565000	850.697199
3.566000	850.219865
3.567000	849.900632
3.568000	848.138844
3.569000	845.753829
3.570000	845.919302
3.571000	843.844476
3.572000	841.770826
3.573000	840.655026
3.574000	840.168813
3.575000	838.101524
3.576000	835.553886
3.577000	833.959907
3.578000	832.841936
3.579000	830.609009
3.580000	828.539037
3.581000	825.510868
3.582000	823.756451
3.583000	823.121000
3.584000	819.774277
3.585000	818.497029
3.586000	815.944024
3.587000	814.033842
3.588000	811.961021
3.589000	809.889045
3.590000	806.384718
3.591000	804.624934
3.592000	802.550622
3.593000	800.802882
3.594000	798.407828
3.595000	795.374143
3.596000	790.914137
3.597000	789.321334
3.598000	786.610891
3.599000	785.973435
3.600000	782.146529
3.601000	779.109166
3.602000	774.978432
3.603000	772.418900
3.604000	770.186139
3.605000	766.676793
3.606000	764.129486
3.607000	759.978659
3.608000	756.791892
3.609000	754.081615
3.610000	749.936817
3.611000	747.866679
3.612000	742.916617
3.613000	739.568387
3.614000	736.065235
3.615000	732.394260
3.616000	729.206483
3.617000	725.859760
3.618000	721.391554
3.619000	718.997495
3.620000	714.373690
3.621000	711.030313
3.622000	706.555249
3.623000	702.892805
3.624000	699.386308
3.625000	696.355969
3.626000	692.689681
3.627000	690.293784
3.628000	685.825578
3.629000	682.960049
3.630000	677.855381
3.631000	674.024631
3.632000	670.840532
3.633000	666.211873
3.634000	663.499923
3.635000	659.349774
3.636000	655.210674
3.637000	650.579001
3.638000	647.707924
3.639000	643.560624
3.640000	638.942004
3.641000	635.110078
3.642000	632.241021
3.643000	628.728494
3.644000	624.742145
3.645000	621.073687
3.646000	616.451886
3.647000	613.257914
3.648000	609.589622
3.649000	604.483960
3.650000	601.138744
3.651000	597.785661
3.652000	592.686691
3.653000	590.454427
3.654000	585.830125
3.655000	581.360909
3.656000	578.014186
3.657000	574.339864
3.658000	570.200764
3.659000	565.575120
3.660000	562.388505
3.661000	559.514774
3.662000	554.248661
3.663000	551.213966
3.664000	545.315927
3.665000	541.808585
3.666000	538.139117
3.667000	535.271583
3.668000	528.418182
3.669000	525.223546
3.670000	519.804515
3.671000	516.931614
3.672000	511.986737
3.673000	508.957243
3.674000	504.011853
3.675000	499.864884
3.676000	495.243928
3.677000	491.097954
3.678000	485.680431
3.679000	483.285709
3.680000	478.660065
3.681000	474.035415
3.682000	470.529581
3.683000	466.534866
3.684000	461.438414
3.685000	457.928389
3.686000	453.629002
3.687000	450.597156
3.688000	445.019013
3.689000	440.392359
3.690000	436.570306
3.691000	432.583791
3.692000	428.594593
3.693000	422.857339
3.694000	420.784518
3.695000	415.685382
3.696000	411.854633
3.697000	407.388431
3.698000	402.127170
3.699000	398.466581
3.700000	394.151125
3.701000	389.696470
3.702000	385.550165
3.703000	380.283387
3.704000	375.501812
3.705000	371.519306
3.706000	367.374011
3.707000	363.543924
3.708000	359.883666
3.709000	354.296322
3.710000	349.354128
3.711000	345.525217
3.712000	341.857588
3.713000	335.643994
3.714000	332.132643
3.715000	327.505160
3.716000	322.247742
3.717000	318.739737
3.718000	313.795026
3.719000	310.605575
3.720000	304.861960
3.721000	301.826436
3.722000	296.565183
3.723000	292.735096
3.724000	288.109286
3.725000	284.283887
3.726000	280.930140
3.727000	275.348138
3.728000	271.522077
3.729000	267.210133
3.730000	262.421700
3.731000	257.321389
3.732000	253.807355
3.733000	249.666748
3.734000	246.783477
3.735000	243.915430
3.736000	238.010865
3.737000	235.777590
3.738000	233.536629
3.739000	230.184887
3.740000	226.671019
3.741000	223.159999
3.742000	220.124475
3.743000	217.893718
3.744000	213.903857
3.745000	210.072263
3.746000	207.030544
3.747000	203.522539
3.748000	198.731588
3.749000	196.333852
3.750000	192.024422
3.751000	188.836479
3.752000	187.390412
3.753000	183.722617
3.754000	179.732922
3.755000	177.487604
3.756000	174.612534
3.757000	171.259615
3.758000	168.062975
3.759000	165.504952
3.760000	161.989079
3.761000	160.072536
3.762000	156.558501
3.763000	152.883848
3.764000	150.802496
3.765000	146.335632
3.766000	143.613643
3.767000	140.572768
3.768000	138.176870
3.769000	133.861084
3.770000	130.666614
3.771000	126.996815
3.772000	125.558948
3.773000	122.039894
3.774000	119.479700
3.775000	114.536164
3.776000	112.290681
3.777000	109.253484
3.778000	105.740791
3.779000	102.859857
3.780000	101.105772
3.781000	99.186380
3.782000	95.031543
3.783000	93.268927
3.784000	90.555138
3.785000	89.755721
3.786000	87.520111
3.787000	84.322295
3.788000	80.966875
3.789000	78.731596
3.790000	75.700926
3.791000	74.099757
3.792000	71.701689
3.793000	69.467420
3.794000	68.828623
3.795000	65.147609
3.796000	63.551293
3.797000	59.402983
3.798000	59.239184
3.799000	56.528078
3.800000	54.126996
3.801000	52.369896
3.802000	50.454181
3.803000	46.625933
3.804000	44.864990
3.805000	43.430635
3.806000	42.627707
3.807000	41.667174
3.808000	38.795781
3.809000	38.310578
3.810000	36.396039
3.811000	36.081494
3.812000	34.313014
3.813000	33.203243
3.814000	31.916950
3.815000	29.851335
3.816000	29.207021
3.817000	29.526917
3.818000	27.769817
3.819000	27.609198
3.820000	27.289799
3.821000	26.170652
3.822000	25.060550
3.823000	23.778282
3.824000	23.139650
3.825000	22.496844
3.826000	22.501863
3.827000	21.541662
3.828000	21.385731
3.829000	19.630470
3.830000	19.467681
3.831000	18.831898
3.832000	19.626792
3.833000	17.874215
3.834000	18.027296
3.835000	16.275216
3.836000	16.116104
3.837000	17.708908
3.838000	15.632409
3.839000	15.476975
3.840000	14.202908
3.841000	12.603578
3.842000	14.035596
3.843000	11.641538
3.844000	11.965956
3.845000	11.167550
3.846000	9.732019
3.847000	10.368646
3.848000	9.567391
3.849000	8.291137
3.850000	7.012713
3.851000	6.859963
3.852000	7.179527
3.853000	6.696163
3.854000	4.147184
3.855000	3.504874
3.856000	3.191505
3.857000	3.033222
3.858000	3.349275
3.859000	2.873448
3.860000	2.232480
3.861000	0.801637
3.862000	1.590170
3.863000	2.388908
3.864000	0.474038
3.865000	1.591677
3.866000	0.791929
3.867000	0.796783
3.868000	0.155981
3.869000	-0.005980
3.870000	1.428044
3.871000	0.951885
3.872000	1.588828
3.873000	0.150961
3.874000	-0.958644
3.875000	0.637672
3.876000	1.111494
3.877000	0.790256
3.878000	1.429385
3.879000	0.469019
3.880000	-0.005814
3.881000	-0.322529
3.882000	0.472531
3.883000	1.424366
3.884000	1.110997
3.885000	0.472531
3.886000	0.629306
3.887000	0.306727
3.888000	0.631476
3.889000	0.632652
3.890000	1.111660
3.891000	1.428044
3.892000	1.591512
3.893000	0.317776
3.894000	0.473872
3.895000	0.950875
3.896000	0.790091
3.897000	0.631311
3.898000	0.792261
3.899000	0.473375
3.900000	1.586990
3.901000	1.432400
3.902000	0.791598
3.903000	-0.011165
3.904000	0.954221
3.905000	1.908227
3.906000	1.268767
3.907000	0.472199
3.908000	0.791432
3.909000	1.107982
3.910000	-0.004804
3.911000	0.313751
3.912000	1.108148
3.913000	0.311249
3.914000	0.952714
3.915000	0.475048
3.916000	1.904715
3.917000	0.634325
3.918000	1.267756
3.919000	1.744262
3.920000	1.747443
3.921000	1.428044
3.922000	-0.326539
3.923000	0.468853
3.924000	0.786579
3.925000	0.154142
3.926000	0.786910
3.927000	0.788583
3.928000	1.586492
3.929000	-0.163915
3.930000	1.587834
3.931000	1.749960
3.932000	1.266928
3.933000	0.785734
3.934000	1.268767
3.935000	1.580297
3.936000	0.793437
3.937000	0.791764
3.938000	1.110831
3.939000	0.473541
3.940000	1.268269
3.941000	1.427215
3.942000	0.628643
3.943000	-0.164744
3.944000	-0.006808
3.945000	1.263747
3.946000	0.626126
3.947000	0.312590
3.948000	1.424200
3.949000	0.947197
3.950000	0.945359
3.951000	0.791929
3.952000	0.308400
3.953000	0.943851
3.954000	1.429220
3.955000	0.791432
3.956000	-0.808395
3.957000	0.468521
3.958000	0.467014
3.959000	1.432400
3.960000	1.105977
3.961000	1.105977
3.962000	0.946700
3.963000	0.471868
3.964000	0.950378
3.965000	0.944183
3.966000	0.149123
3.967000	-0.484987
3.968000	1.106475
3.969000	1.586492
3.970000	0.787589
3.971000	-0.167261
3.972000	0.787589
3.973000	0.948705
3.974000	0.627799
3.975000	-0.330216
3.976000	1.584653
3.977000	0.309244
3.978000	1.263582
3.979000	-0.165588
3.980000	0.625628
3.981000	0.947363
3.982000	-0.806888
3.983000	1.427381
3.984000	0.464844
3.985000	1.743433
3.986000	0.946187
3.987000	1.583312
3.988000	1.743765
3.989000	0.307903
3.990000	0.630813
3.991000	1.746780
3.992000	0.309410
3.993000	1.583312
3.994000	0.948705
3.995000	0.949036
3.996000	-0.485650
3.997000	0.152137
3.998000	1.584653
3.999000	1.266596
