BioWare Version 5.3.0.7 Export
Device:	4827094 9260AA6	4827095 9260AA6
Samples (#):	4000	4000
Rate (Hz):	1000.000000	1000.000000
Contact period start (sample #):	0	0
Contact period end (sample #):	3999	3999
Contact period start time (s):	0.000000	0.000000
Contact period end time (s):	3.999000	3.999000
First sample time (s):	0.000000	0.000000
Normalized force (N):	0.727714	0.727714
Normalized length (m):	1.000000	1.000000
File Information
Date	Nov 14
Name	
ID	
Classification	
Description	
abs time (s)	Fz	Fz
	N	N
0.000000    945.428116
0.001000    946.391525
0.002000    945.115112
0.003000    945.913193
0.004000    946.545944
0.005000    946.070282
0.006000    947.032669
0.007000    945.912857
0.008000    946.550980
0.009000    947.186905
0.010000    946.388504
0.011000    946.868515
0.012000    945.906845
0.013000    945.755585
0.014000    947.351898
0.015000    945.745697
0.016000    946.869888
0.017000    948.140564
0.018000    947.031174
0.019000    947.188461
0.020000    946.870880
0.021000    947.504654
0.022000    947.821014
0.023000    947.027466
0.024000    945.275726
0.025000    947.823013
0.026000    946.869888
0.027000    946.870041
0.028000    946.552475
0.029000    946.867172
0.030000    946.232574
0.031000    946.542450
0.032000    945.589630
0.033000    946.710953
0.034000    946.710785
0.035000    947.024780
0.036000    946.388504
0.037000    946.554153
0.038000    946.078186
0.039000    945.911026
0.040000    946.712616
0.041000    946.866867
0.042000    946.394547
0.043000    947.027634
0.044000    946.394882
0.045000    944.798569
0.046000    947.032852
0.047000    945.757278
0.048000    947.666626
0.049000    947.667267
0.050000    944.798248
0.051000    946.394409
0.052000    947.347397
0.053000    946.396545
0.054000    945.438156
0.055000    945.115799
0.056000    945.115967
0.057000    945.756607
0.058000    946.233948
0.059000    946.069275
0.060000    947.188110
0.061000    944.638779
0.062000    946.068787
0.063000    946.393372
0.064000    946.392868
0.065000    947.026794
0.066000    947.350235
0.067000    946.706238
0.068000    946.075150
0.069000    946.868698
0.070000    945.919235
0.071000    946.873047
0.072000    947.346725
0.073000    947.669800
0.074000    946.394379
0.075000    947.188934
0.076000    947.674454
0.077000    947.350067
0.078000    947.509018
0.079000    946.710449
0.080000    946.873245
0.081000    947.824890
0.082000    947.350052
0.083000    946.709579
0.084000    947.189789
0.085000    946.393066
0.086000    946.228912
0.087000    947.987671
0.088000    948.619110
0.089000    947.668442
0.090000    947.981461
0.091000    948.146957
0.092000    947.194443
0.093000    947.663406
0.094000    947.824051
0.095000    948.620621
0.096000    946.548798
0.097000    946.710770
0.098000    947.660248
0.099000    947.664627
0.100000    947.504318
0.101000    947.191788
0.102000    947.825562
0.103000    947.345505
0.104000    947.663406
0.105000    946.867020
0.106000    948.937515
0.107000    946.866684
0.108000    946.076828
0.109000    947.024628
0.110000    946.388687
0.111000    946.547440
0.112000    947.345688
0.113000    946.865341
0.114000    946.547302
0.115000    946.229065
0.116000    945.906830
0.117000    946.870712
0.118000    946.861679
0.119000    944.633255
0.120000    946.073624
0.121000    945.593628
0.122000    946.867172
0.123000    945.590622
0.124000    946.224396
0.125000    946.387009
0.126000    946.865005
0.127000    947.816193
0.128000    945.429489
0.129000    944.951294
0.130000    946.539261
0.131000    944.314529
0.132000    945.274216
0.133000    946.068787
0.134000    946.705231
0.135000    945.591949
0.136000    946.228394
0.137000    946.068939
0.138000    945.905136
0.139000    946.389023
0.140000    946.070450
0.141000    946.387009
0.142000    946.544113
0.143000    946.229736
0.144000    945.910019
0.145000    944.787323
0.146000    946.862167
0.147000    946.073792
0.148000    945.427795
0.149000    946.222855
0.150000    946.868866
0.151000    947.341019
0.152000    946.386826
0.153000    946.703400
0.154000    945.427795
0.155000    945.908325
0.156000    945.275894
0.157000    946.229416
0.158000    945.754059
0.159000    946.867172
0.160000    946.546799
0.161000    946.705734
0.162000    944.316208
0.163000    945.596298
0.164000    945.278748
0.165000    946.709564
0.166000    945.270218
0.167000    946.068283
0.168000    945.910995
0.169000    947.340515
0.170000    946.541962
0.171000    945.427628
0.172000    946.547302
0.173000    946.068283
0.174000    946.549957
0.175000    946.233932
0.176000    946.545624
0.177000    946.232407
0.178000    946.390015
0.179000    944.959015
0.180000    946.065460
0.181000    944.001511
0.182000    946.864990
0.183000    946.074677
0.184000    945.907349
0.185000    946.705917
0.186000    946.227219
0.187000    945.114777
0.188000    945.432831
0.189000    945.114273
0.190000    944.954330
0.191000    945.433685
0.192000    945.112610
0.193000    946.071289
0.194000    945.434189
0.195000    945.112610
0.196000    945.907333
0.197000    945.425125
0.198000    944.956863
0.199000    944.794403
0.200000    945.435837
0.201000    946.386337
0.202000    945.271896
0.203000    945.591110
0.204000    945.425797
0.205000    945.279266
0.206000    945.910995
0.207000    944.473129
0.208000    945.109421
0.209000    945.110947
0.210000    944.793228
0.211000    945.432358
0.212000    944.796219
0.213000    945.902802
0.214000    944.314514
0.215000    945.908173
0.216000    944.635437
0.217000    945.431015
0.218000    944.481674
0.219000    945.429504
0.220000    945.904144
0.221000    946.707581
0.222000    945.113800
0.223000    946.068604
0.224000    945.437195
0.225000    944.158279
0.226000    945.748886
0.227000    943.994476
0.228000    945.111435
0.229000    946.066620
0.230000    945.116287
0.231000    945.106079
0.232000    945.591110
0.233000    945.747238
0.234000    945.906677
0.235000    945.745529
0.236000    946.545624
0.237000    945.109253
0.238000    945.594299
0.239000    945.437347
0.240000    946.387344
0.241000    946.545120
0.242000    946.071625
0.243000    945.909348
0.244000    946.227570
0.245000    945.750717
0.246000    945.750397
0.247000    947.347397
0.248000    946.390182
0.249000    946.068115
0.250000    946.547119
0.251000    947.025787
0.252000    946.702560
0.253000    947.347214
0.254000    947.350403
0.255000    945.591797
0.256000    947.185745
0.257000    947.021454
0.258000    945.913513
0.259000    947.509995
0.260000    946.391693
0.261000    946.546799
0.262000    945.909515
0.263000    946.548309
0.264000    946.545975
0.265000    946.068466
0.266000    947.025955
0.267000    945.912994
0.268000    945.594635
0.269000    945.752060
0.270000    945.586411
0.271000    945.751907
0.272000    946.709061
0.273000    945.429504
0.274000    945.590118
0.275000    946.229065
0.276000    947.027283
0.277000    945.909500
0.278000    945.753891
0.279000    946.865021
0.280000    945.909348
0.281000    946.709244
0.282000    944.793243
0.283000    947.184570
0.284000    945.271393
0.285000    945.434021
0.286000    946.866531
0.287000    946.070129
0.288000    946.550308
0.289000    945.749374
0.290000    944.791672
0.291000    947.509674
0.292000    945.907501
0.293000    946.228745
0.294000    945.750229
0.295000    945.911514
0.296000    946.233292
0.297000    946.709076
0.298000    946.549973
0.299000    945.750061
0.300000    945.433838
0.301000    945.910355
0.302000    946.868027
0.303000    946.069641
0.304000    946.393875
0.305000    946.866852
0.306000    946.071289
0.307000    948.305740
0.308000    944.484528
0.309000    946.550140
0.310000    945.590622
0.311000    945.590973
0.312000    945.284607
0.313000    947.348083
0.314000    945.275406
0.315000    945.597168
0.316000    945.756607
0.317000    946.549957
0.318000    945.912201
0.319000    945.433197
0.320000    946.237122
0.321000    946.072647
0.322000    946.389175
0.323000    946.547806
0.324000    946.554672
0.325000    945.912338
0.326000    945.915237
0.327000    945.754730
0.328000    945.756271
0.329000    945.756287
0.330000    946.876068
0.331000    946.551331
0.332000    946.392548
0.333000    946.233124
0.334000    946.071289
0.335000    945.754593
0.336000    944.637451
0.337000    946.394058
0.338000    946.236938
0.339000    947.028351
0.340000    947.351883
0.341000    946.396912
0.342000    945.756607
0.343000    946.712128
0.344000    947.031342
0.345000    946.230087
0.346000    945.438873
0.347000    946.231918
0.348000    946.388016
0.349000    947.029831
0.350000    945.752731
0.351000    946.232422
0.352000    946.236938
0.353000    945.438385
0.354000    946.554840
0.355000    946.236786
0.356000    946.710129
0.357000    946.713959
0.358000    946.712433
0.359000    945.590637
0.360000    947.031998
0.361000    946.076508
0.362000    945.115936
0.363000    945.917221
0.364000    946.713455
0.365000    946.235611
0.366000    946.710632
0.367000    946.392715
0.368000    947.031845
0.369000    947.033859
0.370000    945.915894
0.371000    946.553329
0.372000    946.232071
0.373000    946.871704
0.374000    947.189926
0.375000    946.714447
0.376000    946.713791
0.377000    946.710602
0.378000    946.707245
0.379000    947.504150
0.380000    947.349731
0.381000    945.437363
0.382000    945.117966
0.383000    946.877716
0.384000    947.828735
0.385000    946.874741
0.386000    947.027145
0.387000    946.391190
0.388000    947.190781
0.389000    947.508514
0.390000    946.233124
0.391000    946.555176
0.392000    947.505661
0.393000    946.233109
0.394000    946.082672
0.395000    946.234772
0.396000    947.187943
0.397000    946.713638
0.398000    947.671310
0.399000    947.514008
0.400000    946.556503
0.401000    947.035004
0.402000    946.073151
0.403000    947.192627
0.404000    946.871887
0.405000    946.397064
0.406000    947.194290
0.407000    946.717453
0.408000    946.237289
0.409000    947.350235
0.410000    945.441544
0.411000    944.640778
0.412000    946.870728
0.413000    947.033005
0.414000    946.393875
0.415000    946.394409
0.416000    946.236938
0.417000    946.075180
0.418000    945.438736
0.419000    946.554337
0.420000    946.556335
0.421000    947.511520
0.422000    945.123505
0.423000    946.243454
0.424000    947.038330
0.425000    946.716614
0.426000    946.239609
0.427000    946.880096
0.428000    945.281128
0.429000    946.874252
0.430000    946.870743
0.431000    946.875748
0.432000    946.877060
0.433000    946.400070
0.434000    946.079010
0.435000    945.917374
0.436000    946.395065
0.437000    944.641953
0.438000    945.760788
0.439000    946.077164
0.440000    947.834274
0.441000    945.915375
0.442000    946.714951
0.443000    946.876053
0.444000    946.237762
0.445000    945.285446
0.446000    945.441238
0.447000    945.761108
0.448000    945.282089
0.449000    946.878723
0.450000    946.559692
0.451000    946.242630
0.452000    945.444382
0.453000    947.993393
0.454000    946.075653
0.455000    946.877075
0.456000    946.401413
0.457000    946.872391
0.458000    945.917038
0.459000    946.717957
0.460000    946.870911
0.461000    947.032852
0.462000    945.923065
0.463000    947.359589
0.464000    946.878738
0.465000    946.241608
0.466000    946.077332
0.467000    946.714279
0.468000    946.552689
0.469000    946.716797
0.470000    946.878250
0.471000    946.708755
0.472000    945.918045
0.473000    947.352417
0.474000    946.723343
0.475000    947.196442
0.476000    946.401917
0.477000    946.874252
0.478000    947.191803
0.479000    946.398239
0.480000    946.397064
0.481000    947.828415
0.482000    946.401398
0.483000    947.993713
0.484000    946.399918
0.485000    945.763779
0.486000    946.082016
0.487000    946.876068
0.488000    946.556168
0.489000    946.876724
0.490000    947.200165
0.491000    946.555847
0.492000    946.557831
0.493000    946.241104
0.494000    944.956512
0.495000    946.397064
0.496000    946.872711
0.497000    947.513199
0.498000    946.553009
0.499000    947.038330
0.500000    946.557831
0.501000    946.080841
0.502000    946.719452
0.503000    947.195480
0.504000    946.074509
0.505000    946.715302
0.506000    947.677338
0.507000    947.191803
0.508000    947.831406
0.509000    948.311798
0.510000    946.561020
0.511000    947.513504
0.512000    947.035690
0.513000    946.873566
0.514000    947.352554
0.515000    948.314453
0.516000    947.671814
0.517000    947.673645
0.518000    945.445053
0.519000    946.716797
0.520000    948.314804
0.521000    947.673965
0.522000    946.558670
0.523000    948.308258
0.524000    947.839279
0.525000    947.195145
0.526000    947.516541
0.527000    947.514709
0.528000    946.880615
0.529000    948.631348
0.530000    947.675156
0.531000    947.514709
0.532000    947.832748
0.533000    946.726334
0.534000    947.993225
0.535000    948.150803
0.536000    948.951752
0.537000    948.793289
0.538000    947.991516
0.539000    947.516052
0.540000    946.883591
0.541000    947.837463
0.542000    946.563721
0.543000    948.155014
0.544000    946.565536
0.545000    948.155518
0.546000    947.203171
0.547000    947.043716
0.548000    947.839111
0.549000    948.158356
0.550000    944.968719
0.551000    947.355743
0.552000    947.198151
0.553000    946.245819
0.554000    947.516388
0.555000    947.678833
0.556000    947.519241
0.557000    946.404770
0.558000    947.517899
0.559000    947.041901
0.560000    946.089737
0.561000    947.042374
0.562000    945.612869
0.563000    945.766647
0.564000    947.356934
0.565000    946.887939
0.566000    947.043900
0.567000    945.608902
0.568000    946.247330
0.569000    946.407623
0.570000    945.131027
0.571000    946.246674
0.572000    945.290161
0.573000    945.134369
0.574000    946.086548
0.575000    946.723663
0.576000    945.768646
0.577000    946.087555
0.578000    946.248672
0.579000    945.605515
0.580000    945.769836
0.581000    945.928772
0.582000    944.175339
0.583000    945.769653
0.584000    946.085739
0.585000    945.926941
0.586000    945.772675
0.587000    947.207382
0.588000    946.890640
0.589000    945.299362
0.590000    946.726517
0.591000    946.411987
0.592000    946.091400
0.593000    946.250000
0.594000    945.773010
0.595000    945.774490
0.596000    946.729889
0.597000    945.776367
0.598000    946.091873
0.599000    947.049591
0.600000    946.092728
0.601000    946.407776
0.602000    946.251495
0.603000    945.614059
0.604000    945.456619
0.605000    946.097778
0.606000    947.367996
0.607000    947.210709
0.608000    947.367325
0.609000    947.206345
0.610000    947.209061
0.611000    946.889633
0.612000    945.935303
0.613000    946.094101
0.614000    946.414993
0.615000    945.617081
0.616000    946.894165
0.617000    947.045059
0.618000    947.369659
0.619000    946.412140
0.620000    946.413483
0.621000    946.256546
0.622000    946.092239
0.623000    945.933609
0.624000    947.048416
0.625000    946.569717
0.626000    946.575272
0.627000    945.777878
0.628000    946.568039
0.629000    945.615219
0.630000    945.615707
0.631000    945.294815
0.632000    946.412323
0.633000    945.615891
0.634000    946.256546
0.635000    945.294159
0.636000    945.131866
0.637000    945.135391
0.638000    946.570755
0.639000    946.092545
0.640000    946.245163
0.641000    944.813980
0.642000    946.089203
0.643000    945.453278
0.644000    944.814987
0.645000    944.977600
0.646000    946.251007
0.647000    946.728683
0.648000    944.178207
0.649000    944.020264
0.650000    943.540268
0.651000    944.654877
0.652000    944.655045
0.653000    945.775864
0.654000    944.817001
0.655000    945.767990
0.656000    944.816833
0.657000    943.382813
0.658000    944.338806
0.659000    945.454437
0.660000    944.176529
0.661000    944.338654
0.662000    944.341812
0.663000    944.184387
0.664000    945.451279
0.665000    945.135056
0.666000    944.814987
0.667000    945.455963
0.668000    945.457642
0.669000    944.656036
0.670000    946.577438
0.671000    945.459320
0.672000    943.857834
0.673000    945.457153
0.674000    946.570435
0.675000    944.824692
0.676000    945.614899
0.677000    944.341492
0.678000    945.932617
0.679000    944.658890
0.680000    946.097260
0.681000    945.456284
0.682000    944.021927
0.683000    945.929611
0.684000    945.462158
0.685000    944.343002
0.686000    945.301712
0.687000    945.144592
0.688000    944.502609
0.689000    946.099930
0.690000    944.819168
0.691000    946.096771
0.692000    946.100266
0.693000    946.096924
0.694000    945.939651
0.695000    946.252380
0.696000    945.620102
0.697000    945.457809
0.698000    945.772339
0.699000    946.414139
0.700000    946.252869
0.701000    946.895325
0.702000    945.139587
0.703000    946.417145
0.704000    947.052780
0.705000    947.534149
0.706000    946.572601
0.707000    945.143265
0.708000    947.208542
0.709000    945.937836
0.710000    947.531281
0.711000    946.418320
0.712000    947.689041
0.713000    947.054443
0.714000    947.211212
0.715000    946.889313
0.716000    946.891312
0.717000    945.784225
0.718000    946.735031
0.719000    947.214874
0.720000    947.371155
0.721000    947.847519
0.722000    947.844666
0.723000    947.533432
0.724000    948.328171
0.725000    946.735031
0.726000    947.691879
0.727000    947.211884
0.728000    947.846649
0.729000    948.008606
0.730000    948.167740
0.731000    947.855698
0.732000    947.851501
0.733000    948.487610
0.734000    948.323486
0.735000    948.644562
0.736000    949.763382
0.737000    948.647751
0.738000    946.728989
0.739000    948.326996
0.740000    948.326813
0.741000    949.119064
0.742000    948.325317
0.743000    947.682678
0.744000    948.638550
0.745000    948.007599
0.746000    948.804169
0.747000    948.643570
0.748000    946.887619
0.749000    947.848328
0.750000    948.646393
0.751000    948.328171
0.752000    948.008942
0.753000    948.645035
0.754000    947.368134
0.755000    948.000900
0.756000    948.963440
0.757000    948.163055
0.758000    948.007767
0.759000    947.843155
0.760000    947.848328
0.761000    947.041550
0.762000    948.476395
0.763000    947.848648
0.764000    948.161728
0.765000    948.484436
0.766000    947.047058
0.767000    948.001053
0.768000    947.525940
0.769000    947.211044
0.770000    946.722656
0.771000    947.202499
0.772000    946.884781
0.773000    946.721176
0.774000    947.364792
0.775000    946.725662
0.776000    947.518738
0.777000    947.999725
0.778000    947.043381
0.779000    947.684708
0.780000    946.884933
0.781000    945.927765
0.782000    945.764954
0.783000    946.086212
0.784000    947.199661
0.785000    947.680176
0.786000    945.771820
0.787000    946.089539
0.788000    946.248825
0.789000    945.932266
0.790000    946.407959
0.791000    946.247147
0.792000    945.771820
0.793000    946.729004
0.794000    945.933792
0.795000    944.814819
0.796000    946.883270
0.797000    946.410614
0.798000    945.613724
0.799000    945.771652
0.800000    945.447235
0.801000    945.132385
0.802000    945.612701
0.803000    946.411987
0.804000    946.728668
0.805000    946.727829
0.806000    945.933929
0.807000    945.295990
0.808000    945.933609
0.809000    946.886444
0.810000    945.774673
0.811000    946.730209
0.812000    947.044876
0.813000    947.682846
0.814000    946.413986
0.815000    946.574768
0.816000    946.092728
0.817000    947.207535
0.818000    947.686890
0.819000    947.682678
0.820000    948.002579
0.821000    947.680847
0.822000    947.533279
0.823000    948.323334
0.824000    947.689377
0.825000    947.685715
0.826000    947.361298
0.827000    946.887466
0.828000    948.964615
0.829000    946.728516
0.830000    948.964462
0.831000    948.001938
0.832000    947.682678
0.833000    947.995895
0.834000    947.844986
0.835000    947.844345
0.836000    949.121887
0.837000    948.316788
0.838000    949.436935
0.839000    947.685715
0.840000    947.845993
0.841000    947.842133
0.842000    949.438110
0.843000    948.156342
0.844000    948.163055
0.845000    949.279495
0.846000    947.999725
0.847000    947.525604
0.848000    949.909256
0.849000    948.803665
0.850000    947.045547
0.851000    948.163528
0.852000    948.476074
0.853000    948.964767
0.854000    947.524063
0.855000    949.279007
0.856000    948.322006
0.857000    947.047058
0.858000    946.725662
0.859000    949.272797
0.860000    948.636673
0.861000    947.682663
0.862000    948.161545
0.863000    947.046890
0.864000    948.797653
0.865000    948.314117
0.866000    945.771988
0.867000    947.358276
0.868000    946.247147
0.869000    948.795959
0.870000    948.320480
0.871000    946.562042
0.872000    946.880112
0.873000    947.520386
0.874000    946.565369
0.875000    947.050247
0.876000    946.086380
0.877000    946.721481
0.878000    946.085388
0.879000    947.198013
0.880000    946.723175
0.881000    945.932770
0.882000    946.881927
0.883000    945.765930
0.884000    945.770309
0.885000    945.287109
0.886000    946.244476
0.887000    944.967072
0.888000    946.563721
0.889000    945.449951
0.890000    946.881927
0.891000    945.768661
0.892000    945.603348
0.893000    946.245804
0.894000    946.403275
0.895000    945.448227
0.896000    945.605011
0.897000    945.444214
0.898000    946.714294
0.899000    944.967880
0.900000    945.294998
0.901000    945.609879
0.902000    945.129822
0.903000    944.974106
0.904000    946.563873
0.905000    944.967224
0.906000    947.041367
0.907000    946.246155
0.908000    946.881287
0.909000    947.045380
0.910000    945.287445
0.911000    946.245483
0.912000    946.724640
0.913000    945.605164
0.914000    946.400238
0.915000    947.201981
0.916000    946.399719
0.917000    946.086716
0.918000    947.202515
0.919000    946.562225
0.920000    946.409760
0.921000    946.878403
0.922000    946.563705
0.923000    945.446228
0.924000    946.407623
0.925000    945.454269
0.926000    946.407608
0.927000    946.884933
0.928000    945.287094
0.929000    945.289642
0.930000    946.881439
0.931000    947.037369
0.932000    946.087204
0.933000    948.315445
0.934000    946.242615
0.935000    946.244476
0.936000    946.724487
0.937000    947.039368
0.938000    947.038727
0.939000    946.086868
0.940000    946.720993
0.941000    947.525253
0.942000    946.403275
0.943000    947.837616
0.944000    945.929443
0.945000    946.403091
0.946000    946.721146
0.947000    946.886612
0.948000    946.078842
0.949000    946.563370
0.950000    946.405090
0.951000    947.355911
0.952000    947.522552
0.953000    947.038879
0.954000    946.085190
0.955000    947.039871
0.956000    947.035675
0.957000    946.879608
0.958000    945.765121
0.959000    946.401733
0.960000    947.360428
0.961000    948.317947
0.962000    947.043716
0.963000    947.196442
0.964000    947.365280
0.965000    946.722641
0.966000    947.039063
0.967000    946.723999
0.968000    947.203156
0.969000    947.040726
0.970000    947.513168
0.971000    947.358292
0.972000    947.353561
0.973000    946.245834
0.974000    946.563385
0.975000    946.242126
0.976000    947.999725
0.977000    946.725998
0.978000    947.035522
0.979000    945.921219
0.980000    946.401062
0.981000    946.242294
0.982000    946.244339
0.983000    946.402405
0.984000    946.401733
0.985000    946.563889
0.986000    947.034515
0.987000    947.198654
0.988000    947.201340
0.989000    947.995056
0.990000    947.518234
0.991000    945.287598
0.992000    947.037521
0.993000    946.878571
0.994000    947.196472
0.995000    947.196793
0.996000    947.516556
0.997000    947.199829
0.998000    947.198654
0.999000    947.519714
1.000000    946.562714
1.001000    947.514023
1.002000    947.511841
1.003000    945.604004
1.004000    946.242950
1.005000    946.561523
1.006000    947.041046
1.007000    947.036835
1.008000    947.196808
1.009000    947.198837
1.010000    946.402084
1.011000    947.042542
1.012000    946.879074
1.013000    946.559006
1.014000    948.627808
1.015000    947.521561
1.016000    947.677002
1.017000    947.039566
1.018000    946.239624
1.019000    947.526779
1.020000    946.401566
1.021000    946.403275
1.022000    946.561035
1.023000    946.880432
1.024000    947.515030
1.025000    947.514694
1.026000    946.880783
1.027000    946.877258
1.028000    946.562729
1.029000    947.357788
1.030000    946.720108
1.031000    947.042908
1.032000    947.679016
1.033000    947.046219
1.034000    947.995560
1.035000    946.720627
1.036000    946.882431
1.037000    948.157516
1.038000    948.152847
1.039000    947.995056
1.040000    946.882446
1.041000    947.349243
1.042000    946.556183
1.043000    947.515182
1.044000    947.354401
1.045000    946.398224
1.046000    946.085541
1.047000    947.353088
1.048000    946.080994
1.049000    946.559494
1.050000    947.031174
1.051000    945.600494
1.052000    946.877396
1.053000    945.760620
1.054000    946.075836
1.055000    945.600662
1.056000    945.913696
1.057000    945.282608
1.058000    946.716125
1.059000    947.035187
1.060000    945.443039
1.061000    944.805603
1.062000    945.760941
1.063000    946.075180
1.064000    945.285767
1.065000    945.439728
1.066000    945.438553
1.067000    945.755936
1.068000    944.485367
1.069000    945.280594
1.070000    944.326416
1.071000    944.962723
1.072000    945.443405
1.073000    945.754074
1.074000    946.239288
1.075000    944.640961
1.076000    945.280289
1.077000    946.235794
1.078000    946.078506
1.079000    944.320724
1.080000    944.964554
1.081000    944.318558
1.082000    944.964050
1.083000    945.437729
1.084000    944.318405
1.085000    945.441055
1.086000    944.964203
1.087000    944.167496
1.088000    946.873398
1.089000    946.715103
1.090000    945.751068
1.091000    944.004669
1.092000    945.762436
1.093000    945.288773
1.094000    945.119171
1.095000    947.350739
1.096000    945.436523
1.097000    946.711792
1.098000    945.436188
1.099000    945.280777
1.100000    945.443893
1.101000    946.554016
1.102000    947.353912
1.103000    946.877243
1.104000    945.280945
1.105000    947.675507
1.106000    947.993225
1.107000    947.670959
1.108000    946.879242
1.109000    947.517883
1.110000    946.399902
1.111000    947.676666
1.112000    947.991180
1.113000    947.195297
1.114000    947.678848
1.115000    948.472733
1.116000    947.993073
1.117000    949.430237
1.118000    949.747452
1.119000    949.428909
1.120000    948.793304
1.121000    948.312790
1.122000    948.791458
1.123000    948.951904
1.124000    947.678665
1.125000    948.788300
1.126000    949.114197
1.127000    949.588516
1.128000    949.268478
1.129000    949.748459
1.130000    950.223969
1.131000    950.541702
1.132000    950.230499
1.133000    950.709351
1.134000    949.434952
1.135000    949.909424
1.136000    950.388260
1.137000    950.388443
1.138000    949.426224
1.139000    949.585022
1.140000    950.386429
1.141000    950.065506
1.142000    949.425415
1.143000    950.543701
1.144000    950.224457
1.145000    950.545029
1.146000    950.068359
1.147000    949.589676
1.148000    948.791946
1.149000    949.745789
1.150000    950.385925
1.151000    950.066528
1.152000    950.710678
1.153000    950.386414
1.154000    950.225952
1.155000    950.386093
1.156000    950.386078
1.157000    950.222794
1.158000    949.742279
1.159000    950.384918
1.160000    949.111679
1.161000    948.631332
1.162000    950.540863
1.163000    949.908585
1.164000    950.222809
1.165000    949.427582
1.166000    948.630844
1.167000    948.629333
1.168000    949.584854
1.169000    949.900024
1.170000    950.064011
1.171000    949.742798
1.172000    950.220963
1.173000    950.383224
1.174000    949.259918
1.175000    949.264099
1.176000    950.539185
1.177000    950.216248
1.178000    949.101822
1.179000    950.695099
1.180000    948.305420
1.181000    949.895187
1.182000    949.258240
1.183000    948.942871
1.184000    949.575790
1.185000    950.378571
1.186000    950.216919
1.187000    949.894196
1.188000    949.728210
1.189000    949.422867
1.190000    948.931641
1.191000    949.411804
1.192000    949.413681
1.193000    948.618790
1.194000    949.098953
1.195000    948.935135
1.196000    948.297195
1.197000    949.254425
1.198000    949.415176
1.199000    949.092239
1.200000    948.936523
1.201000    949.252533
1.202000    949.257065
1.203000    949.256241
1.204000    948.617584
1.205000    949.730209
1.206000    948.776199
1.207000    950.048264
1.208000    950.208908
1.209000    949.410812
1.210000    949.572968
1.211000    949.573105
1.212000    949.731735
1.213000    949.725540
1.214000    948.455322
1.215000    950.042084
1.216000    948.932129
1.217000    948.930969
1.218000    948.133911
1.219000    949.410965
1.220000    949.883652
1.221000    950.358810
1.222000    949.084869
1.223000    949.408310
1.224000    949.402924
1.225000    947.810822
1.226000    949.724350
1.227000    949.565399
1.228000    949.713455
1.229000    949.883469
1.230000    949.721497
1.231000    949.251038
1.232000    949.404800
1.233000    949.560379
1.234000    949.403915
1.235000    949.403427
1.236000    949.716782
1.237000    948.603821
1.238000    950.038223
1.239000    948.763977
1.240000    949.881973
1.241000    950.036362
1.242000    949.239594
1.243000    949.564240
1.244000    949.400238
1.245000    950.675644
1.246000    949.556824
1.247000    949.559708
1.248000    950.839462
1.249000    948.446594
1.250000    949.718811
1.251000    950.350204
1.252000    948.599487
1.253000    949.394379
1.254000    948.128525
1.255000    949.560715
1.256000    949.239441
1.257000    948.444397
1.258000    947.963699
1.259000    949.395874
1.260000    950.348404
1.261000    949.230087
1.262000    950.507172
1.263000    950.194611
1.264000    950.190933
1.265000    949.866699
1.266000    948.757095
1.267000    948.597672
1.268000    949.233276
1.269000    948.589951
1.270000    947.801102
1.271000    949.233429
1.272000    948.907333
1.273000    948.912216
1.274000    948.434174
1.275000    949.071640
1.276000    948.273544
1.277000    948.907852
1.278000    948.109436
1.279000    947.794540
1.280000    949.066437
1.281000    947.951996
1.282000    947.951996
1.283000    948.745056
1.284000    948.427002
1.285000    947.476837
1.286000    948.107605
1.287000    948.588272
1.288000    947.312866
1.289000    947.629562
1.290000    947.313049
1.291000    947.785492
1.292000    946.676437
1.293000    947.629578
1.294000    946.193222
1.295000    946.677750
1.296000    945.557617
1.297000    946.355164
1.298000    946.352158
1.299000    944.919327
1.300000    945.239212
1.301000    946.193542
1.302000    943.164047
1.303000    946.195068
1.304000    945.396805
1.305000    945.399490
1.306000    944.597061
1.307000    945.393448
1.308000    943.485443
1.309000    944.917984
1.310000    943.322998
1.311000    943.486633
1.312000    943.965637
1.313000    944.437775
1.314000    943.803192
1.315000    944.442154
1.316000    945.080124
1.317000    943.319504
1.318000    945.083435
1.319000    943.963837
1.320000    944.606430
1.321000    942.847000
1.322000    943.486481
1.323000    944.601593
1.324000    944.760223
1.325000    944.602936
1.326000    944.124268
1.327000    943.969986
1.328000    944.922668
1.329000    944.607788
1.330000    943.810867
1.331000    944.923660
1.332000    943.329041
1.333000    944.448486
1.334000    944.128616
1.335000    944.926712
1.336000    944.451202
1.337000    943.814911
1.338000    945.403687
1.339000    945.086823
1.340000    943.016998
1.341000    944.613632
1.342000    944.447983
1.343000    943.977707
1.344000    945.562302
1.345000    944.929520
1.346000    945.092163
1.347000    945.093491
1.348000    943.335052
1.349000    944.931213
1.350000    944.771591
1.351000    944.290604
1.352000    944.296097
1.353000    945.091675
1.354000    943.335907
1.355000    944.937424
1.356000    945.092682
1.357000    943.982574
1.358000    944.620377
1.359000    945.417267
1.360000    944.936920
1.361000    944.140366
1.362000    945.256317
1.363000    944.938568
1.364000    945.418442
1.365000    944.941910
1.366000    944.790512
1.367000    945.741028
1.368000    945.744705
1.369000    946.070801
1.370000    944.948654
1.371000    946.702408
1.372000    946.384842
1.373000    947.024979
1.374000    946.545288
1.375000    946.228577
1.376000    947.188950
1.377000    945.910187
1.378000    947.344727
1.379000    945.911850
1.380000    947.351074
1.381000    947.031342
1.382000    948.468887
1.383000    945.283783
1.384000    946.560699
1.385000    946.876740
1.386000    947.832260
1.387000    947.037231
1.388000    945.124176
1.389000    945.604004
1.390000    944.653381
1.391000    944.969742
1.392000    945.126862
1.393000    945.607224
1.394000    944.171158
1.395000    944.651520
1.396000    944.010544
1.397000    944.811661
1.398000    943.700195
1.399000    944.816650
1.400000    943.541092
1.401000    943.384827
1.402000    942.262009
1.403000    942.750717
1.404000    942.430817
1.405000    941.791214
1.406000    941.953476
1.407000    941.636276
1.408000    941.793533
1.409000    941.164291
1.410000    942.280106
1.411000    939.885361
1.412000    940.053528
1.413000    940.368073
1.414000    937.820953
1.415000    938.776123
1.416000    938.938232
1.417000    938.305649
1.418000    938.940918
1.419000    938.311172
1.420000    938.309341
1.421000    936.879654
1.422000    936.407181
1.423000    937.208420
1.424000    937.845215
1.425000    937.368896
1.426000    936.887878
1.427000    936.097183
1.428000    936.737320
1.429000    936.737823
1.430000    934.989426
1.431000    934.832474
1.432000    934.992432
1.433000    934.842529
1.434000    934.359192
1.435000    934.366867
1.436000    933.734451
1.437000    933.571808
1.438000    933.420914
1.439000    932.944901
1.440000    933.267654
1.441000    932.153381
1.442000    932.154037
1.443000    932.476776
1.444000    931.841690
1.445000    931.212082
1.446000    930.412537
1.447000    930.416199
1.448000    931.217484
1.449000    929.303268
1.450000    929.785446
1.451000    929.000793
1.452000    928.358307
1.453000    928.684204
1.454000    927.411499
1.455000    926.941040
1.456000    926.300369
1.457000    926.472031
1.458000    925.191803
1.459000    925.199142
1.460000    922.337311
1.461000    922.817169
1.462000    920.432159
1.463000    920.434830
1.464000    919.162766
1.465000    919.172150
1.466000    916.149857
1.467000    915.193680
1.468000    914.560562
1.469000    914.406311
1.470000    910.584259
1.471000    910.434372
1.472000    908.204926
1.473000    907.735809
1.474000    905.514771
1.475000    904.876633
1.476000    903.293213
1.477000    901.385361
1.478000    897.882233
1.479000    897.093185
1.480000    895.026382
1.481000    894.078262
1.482000    892.805191
1.483000    891.862381
1.484000    890.114838
1.485000    888.053406
1.486000    884.869644
1.487000    882.960800
1.488000    881.377197
1.489000    880.588669
1.490000    878.364792
1.491000    875.983459
1.492000    876.308212
1.493000    874.564651
1.494000    873.615860
1.495000    870.436615
1.496000    867.576767
1.497000    866.633316
1.498000    866.637680
1.499000    863.305008
1.500000    862.040985
1.501000    860.773453
1.502000    859.350952
1.503000    857.286209
1.504000    855.384689
1.505000    853.961395
1.506000    852.221542
1.507000    850.314865
1.508000    846.978714
1.509000    846.352646
1.510000    842.535965
1.511000    842.386353
1.512000    839.530716
1.513000    839.217041
1.514000    836.044632
1.515000    835.888550
1.516000    832.235992
1.517000    829.535431
1.518000    827.470154
1.519000    825.569504
1.520000    823.028732
1.521000    821.758011
1.522000    819.537994
1.523000    816.363083
1.524000    813.503738
1.525000    812.075424
1.526000    806.980652
1.527000    804.444550
1.528000    803.174316
1.529000    798.239655
1.530000    794.578918
1.531000    791.402512
1.532000    788.696777
1.533000    786.472702
1.534000    780.103043
1.535000    775.963593
1.536000    771.342468
1.537000    767.681061
1.538000    763.702209
1.539000    758.926865
1.540000    754.622452
1.541000    749.362839
1.542000    744.587967
1.543000    739.491348
1.544000    733.910873
1.545000    728.816086
1.546000    722.756065
1.547000    716.381699
1.548000    711.122971
1.549000    706.019127
1.550000    699.957123
1.551000    693.751747
1.552000    686.571075
1.553000    681.465744
1.554000    674.925560
1.555000    667.753296
1.556000    660.737785
1.557000    654.035461
1.558000    646.379814
1.559000    640.959122
1.560000    632.350624
1.561000    626.118782
1.562000    619.421822
1.563000    610.965759
1.564000    603.629677
1.565000    596.448692
1.566000    587.516289
1.567000    581.286133
1.568000    572.989014
1.569000    566.440292
1.570000    557.988899
1.571000    549.692780
1.572000    539.794174
1.573000    532.772781
1.574000    525.269554
1.575000    517.608566
1.576000    508.832771
1.577000    502.598915
1.578000    492.703476
1.579000    485.360863
1.580000    476.260986
1.581000    468.434845
1.582000    461.251167
1.583000    452.947365
1.584000    445.759514
1.585000    437.782276
1.586000    428.358154
1.587000    421.171986
1.588000    413.180534
1.589000    405.196953
1.590000    398.324978
1.591000    390.978683
1.592000    382.041435
1.593000    375.963013
1.594000    367.187546
1.595000    361.269249
1.596000    353.602386
1.597000    345.294380
1.598000    338.266819
1.599000    331.874519
1.600000    325.161327
1.601000    318.606075
1.602000    311.584370
1.603000    306.146427
1.604000    299.761158
1.605000    293.998631
1.606000    288.249146
1.607000    281.540813
1.608000    275.465237
1.609000    269.876045
1.610000    264.923141
1.611000    260.600143
1.612000    255.646732
1.613000    250.850090
1.614000    245.585648
1.615000    242.224030
1.616000    237.113682
1.617000    234.066944
1.618000    231.028736
1.619000    226.713444
1.620000    221.442314
1.621000    218.559536
1.622000    215.524513
1.623000    212.961300
1.624000    209.920597
1.625000    207.048023
1.626000    204.329384
1.627000    202.401955
1.628000    199.532234
1.629000    195.699978
1.630000    194.249390
1.631000    190.897644
1.632000    190.256004
1.633000    186.581352
1.634000    185.933849
1.635000    180.823174
1.636000    181.293980
1.637000    179.858948
1.638000    178.421078
1.639000    175.067829
1.640000    173.789566
1.641000    172.351025
1.642000    171.228039
1.643000    170.106718
1.644000    169.148024
1.645000    167.392927
1.646000    166.752131
1.647000    164.992014
1.648000    164.036331
1.649000    163.237083
1.650000    162.918861
1.651000    160.839182
1.652000    160.840689
1.653000    161.309324
1.654000    159.083418
1.655000    158.603237
1.656000    158.600222
1.657000    158.436094
1.658000    157.958246
1.659000    157.325144
1.660000    158.438101
1.661000    156.684341
1.662000    155.887939
1.663000    158.120371
1.664000    156.203831
1.665000    156.681168
1.666000    157.161013
1.667000    156.196455
1.668000    156.200979
1.669000    157.318789
1.670000    156.522552
1.671000    157.475376
1.672000    159.231981
1.673000    158.428886
1.674000    159.384899
1.675000    158.906717
1.676000    160.820427
1.677000    160.821089
1.678000    161.781458
1.679000    160.977020
1.680000    163.527510
1.681000    163.210796
1.682000    165.438204
1.683000    166.876402
1.684000    169.110342
1.685000    170.061995
1.686000    172.133142
1.687000    173.565989
1.688000    175.951002
1.689000    178.660601
1.690000    180.098303
1.691000    180.578154
1.692000    183.768600
1.693000    186.620415
1.694000    188.381525
1.695000    190.613121
1.696000    192.529997
1.697000    195.559000
1.698000    199.697760
1.699000    200.976189
1.700000    203.051512
1.701000    206.390039
1.702000    209.897192
1.703000    213.404703
1.704000    216.591303
1.705000    219.937532
1.706000    223.922377
1.707000    228.061802
1.708000    231.890713
1.709000    236.032494
1.710000    240.490993
1.711000    243.206959
1.712000    248.462521
1.713000    253.563496
1.714000    258.823414
1.715000    264.242443
1.716000    268.696594
1.717000    274.275414
1.718000    280.173107
1.719000    285.751583
1.720000    289.731579
1.721000    296.264900
1.722000    302.325565
1.723000    310.609295
1.724000    314.592793
1.725000    321.442669
1.726000    329.099316
1.727000    337.069679
1.728000    341.841888
1.729000    349.181480
1.730000    355.551834
1.731000    362.244602
1.732000    369.896557
1.733000    377.703453
1.734000    384.878407
1.735000    391.259472
1.736000    398.751831
1.737000    407.032387
1.738000    414.684341
1.739000    421.221832
1.740000    428.873131
1.741000    437.796501
1.742000    445.610420
1.743000    452.144073
1.744000    459.798882
1.745000    465.529610
1.746000    473.982651
1.747000    480.353523
1.748000    488.001793
1.749000    496.132256
1.750000    503.621437
1.751000    510.471481
1.752000    517.324860
1.753000    524.340553
1.754000    531.826187
1.755000    538.679573
1.756000    545.685715
1.757000    550.147720
1.758000    559.707710
1.759000    565.606415
1.760000    571.493912
1.761000    578.031067
1.762000    586.630844
1.763000    593.319099
1.764000    600.969238
1.765000    608.772255
1.766000    614.663597
1.767000    623.582596
1.768000    629.475952
1.769000    637.598053
1.770000    644.928452
1.771000    655.760986
1.772000    662.922554
1.773000    668.970146
1.774000    679.646759
1.775000    688.247704
1.776000    696.053757
1.777000    705.769135
1.778000    713.571854
1.779000    722.819458
1.780000    732.533348
1.781000    741.133972
1.782000    751.173111
1.783000    759.777542
1.784000    769.971802
1.785000    778.089035
1.786000    788.611221
1.787000    798.010574
1.788000    805.814468
1.789000    817.125336
1.790000    827.802429
1.791000    838.161133
1.792000    847.884399
1.793000    856.164429
1.794000    867.000839
1.795000    878.160141
1.796000    888.672089
1.797000    898.238281
1.798000    909.240799
1.799000    920.546127
1.800000    931.065979
1.801000    939.514679
1.802000    950.670959
1.803000    961.985321
1.804000    971.863541
1.805000    982.857025
1.806000    993.858902
1.807000    1004.695282
1.808000    1015.531998
1.809000    1027.484695
1.810000    1038.481537
1.811000    1051.873459
1.812000    1061.267593
1.813000    1074.500549
1.814000    1085.652466
1.815000    1097.286118
1.816000    1108.921249
1.817000    1120.236328
1.818000    1132.500671
1.819000    1142.866440
1.820000    1154.819611
1.821000    1166.449249
1.822000    1177.450928
1.823000    1189.397247
1.824000    1201.348785
1.825000    1211.072388
1.826000    1223.021393
1.827000    1234.177704
1.828000    1245.490906
1.829000    1256.643158
1.830000    1265.567566
1.831000    1277.682892
1.832000    1288.035889
1.833000    1299.032898
1.834000    1308.121704
1.835000    1318.470734
1.836000    1328.190979
1.837000    1338.705780
1.838000    1348.747650
1.839000    1359.099152
1.840000    1367.064636
1.841000    1377.425873
1.842000    1386.185425
1.843000    1394.469147
1.844000    1402.118439
1.845000    1411.842041
1.846000    1419.170227
1.847000    1426.811829
1.848000    1435.891754
1.849000    1440.982574
1.850000    1447.359924
1.851000    1455.002838
1.852000    1461.376404
1.853000    1468.226898
1.854000    1472.521790
1.855000    1478.419830
1.856000    1484.310822
1.857000    1489.885956
1.858000    1494.340088
1.859000    1499.915375
1.860000    1504.054840
1.861000    1511.055969
1.862000    1514.877319
1.863000    1520.450958
1.864000    1523.953094
1.865000    1529.525909
1.866000    1533.985352
1.867000    1538.277710
1.868000    1543.047729
1.869000    1545.117188
1.870000    1549.736633
1.871000    1554.347748
1.872000    1559.287079
1.873000    1562.949219
1.874000    1566.923309
1.875000    1572.177002
1.876000    1574.883759
1.877000    1581.416077
1.878000    1585.553711
1.879000    1589.697479
1.880000    1595.427032
1.881000    1600.202057
1.882000    1605.140930
1.883000    1611.517426
1.884000    1615.654907
1.885000    1622.346313
1.886000    1626.802826
1.887000    1632.068237
1.888000    1637.480774
1.889000    1643.699707
1.890000    1651.026764
1.891000    1655.965942
1.892000    1661.229370
1.893000    1666.964264
1.894000    1673.975403
1.895000    1679.866119
1.896000    1685.604889
1.897000    1691.501221
1.898000    1697.715179
1.899000    1704.087708
1.900000    1709.511444
1.901000    1715.725525
1.902000    1722.742859
1.903000    1729.593597
1.904000    1735.175415
1.905000    1741.391968
1.906000    1748.564941
1.907000    1753.667786
1.908000    1760.520477
1.909000    1767.219788
1.910000    1774.231781
1.911000    1780.122803
1.912000    1786.508087
1.913000    1793.999420
1.914000    1799.898285
1.915000    1807.552094
1.916000    1812.967133
1.917000    1820.306213
1.918000    1827.319733
1.919000    1833.378235
1.920000    1841.988708
1.921000    1846.612030
1.922000    1854.901428
1.923000    1861.913086
1.924000    1868.611908
1.925000    1875.301331
1.926000    1882.483124
1.927000    1888.857849
1.928000    1896.186615
1.929000    1902.402069
1.930000    1910.853058
1.931000    1918.029022
1.932000    1923.454407
1.933000    1931.097717
1.934000    1938.439148
1.935000    1945.447296
1.936000    1952.936768
1.937000    1959.956360
1.938000    1965.857056
1.939000    1973.673950
1.940000    1979.892761
1.941000    1986.750305
1.942000    1993.927765
1.943000    2001.898834
1.944000    2007.958832
1.945000    2014.663391
1.946000    2022.316254
1.947000    2028.536102
1.948000    2034.590881
1.949000    2041.934479
1.950000    2047.036316
1.951000    2052.305908
1.952000    2058.211670
1.953000    2062.987793
1.954000    2069.845795
1.955000    2074.159943
1.956000    2078.775055
1.957000    2084.520325
1.958000    2089.303925
1.959000    2092.812805
1.960000    2096.480377
1.961000    2099.661987
1.962000    2104.126984
1.963000    2108.916443
1.964000    2111.938080
1.965000    2116.405945
1.966000    2118.312622
1.967000    2124.367401
1.968000    2127.237335
1.969000    2131.060089
1.970000    2133.929047
1.971000    2136.152924
1.972000    2139.181061
1.973000    2143.317871
1.974000    2147.784058
1.975000    2148.891174
1.976000    2151.756165
1.977000    2155.104797
1.978000    2156.859192
1.979000    2160.206207
1.980000    2161.470551
1.981000    2162.737610
1.982000    2165.607849
1.983000    2167.835571
1.984000    2167.830414
1.985000    2169.103851
1.986000    2170.048950
1.987000    2169.418518
1.988000    2171.641541
1.989000    2171.639557
1.990000    2171.792603
1.991000    2171.954895
1.992000    2170.195007
1.993000    2171.783630
1.994000    2172.579498
1.995000    2172.097961
1.996000    2171.612793
1.997000    2170.018311
1.998000    2170.174286
1.999000    2169.369659
2.000000    2169.051605
2.001000    2166.655823
2.002000    2166.010345
2.003000    2164.889526
2.004000    2162.814392
2.005000    2160.570892
2.006000    2159.455078
2.007000    2156.898590
2.008000    2154.021851
2.009000    2152.581757
2.010000    2149.389618
2.011000    2145.876953
2.012000    2144.753784
2.013000    2141.714294
2.014000    2137.883820
2.015000    2134.691254
2.016000    2131.657532
2.017000    2127.347260
2.018000    2123.041199
2.019000    2120.638916
2.020000    2115.696930
2.021000    2109.149536
2.022000    2106.753235
2.023000    2102.284180
2.024000    2098.773193
2.025000    2093.343048
2.026000    2088.081848
2.027000    2083.450195
2.028000    2079.464355
2.029000    2074.832275
2.030000    2068.927063
2.031000    2063.987274
2.032000    2059.345886
2.033000    2053.768677
2.034000    2047.863464
2.035000    2042.436432
2.036000    2037.494080
2.037000    2032.223358
2.038000    2026.007965
2.039000    2021.699310
2.040000    2015.638336
2.041000    2009.251282
2.042000    2004.943787
2.043000    2000.002625
2.044000    1995.696716
2.045000    1990.748840
2.046000    1983.730499
2.047000    1978.308075
2.048000    1973.682953
2.049000    1968.579285
2.050000    1961.401306
2.051000    1959.004089
2.052000    1952.309418
2.053000    1948.478516
2.054000    1940.982666
2.055000    1937.313324
2.056000    1932.210602
2.057000    1927.423462
2.058000    1921.688049
2.059000    1917.218475
2.060000    1911.153961
2.061000    1903.983307
2.062000    1901.586121
2.063000    1895.528473
2.064000    1890.748352
2.065000    1887.075745
2.066000    1880.058380
2.067000    1874.482758
2.068000    1870.968872
2.069000    1866.187439
2.070000    1860.443024
2.071000    1856.935669
2.072000    1851.514771
2.073000    1848.005463
2.074000    1844.337280
2.075000    1837.482758
2.076000    1833.807770
2.077000    1828.392456
2.078000    1824.240570
2.079000    1819.934875
2.080000    1814.358215
2.081000    1810.207184
2.082000    1805.583618
2.083000    1802.390167
2.084000    1796.648041
2.085000    1793.937592
2.086000    1786.923737
2.087000    1784.532257
2.088000    1778.785339
2.089000    1775.437378
2.090000    1769.376312
2.091000    1766.189209
2.092000    1761.880432
2.093000    1758.368988
2.094000    1754.072754
2.095000    1751.523895
2.096000    1747.053009
2.097000    1744.652771
2.098000    1740.035339
2.099000    1737.160278
2.100000    1732.854004
2.101000    1731.576965
2.102000    1728.393219
2.103000    1724.562164
2.104000    1723.603882
2.105000    1719.144043
2.106000    1716.593109
2.107000    1715.470276
2.108000    1710.530121
2.109000    1708.931946
2.110000    1706.228333
2.111000    1703.193176
2.112000    1701.754303
2.113000    1697.614868
2.114000    1696.493896
2.115000    1694.255280
2.116000    1690.273102
2.117000    1689.953491
2.118000    1686.760712
2.119000    1685.645905
2.120000    1683.249512
2.121000    1681.499268
2.122000    1679.422882
2.123000    1677.193146
2.124000    1677.349091
2.125000    1675.756683
2.126000    1673.680176
2.127000    1672.563507
2.128000    1671.764252
2.129000    1669.851379
2.130000    1669.208771
2.131000    1667.135437
2.132000    1665.703247
2.133000    1664.741364
2.134000    1663.146423
2.135000    1663.149780
2.136000    1661.076141
2.137000    1660.122955
2.138000    1660.596771
2.139000    1658.046631
2.140000    1657.402649
2.141000    1656.764008
2.142000    1657.721222
2.143000    1656.760834
2.144000    1656.284454
2.145000    1656.123474
2.146000    1655.317902
2.147000    1656.116974
2.148000    1656.117096
2.149000    1656.276428
2.150000    1656.749329
2.151000    1657.393738
2.152000    1656.751953
2.153000    1658.497955
2.154000    1657.384399
2.155000    1658.978180
2.156000    1659.128204
2.157000    1659.130066
2.158000    1661.199646
2.159000    1661.199524
2.160000    1660.875916
2.161000    1663.584839
2.162000    1663.744141
2.163000    1665.653137
2.164000    1664.846832
2.165000    1668.354187
2.166000    1669.945648
2.167000    1670.095215
2.168000    1674.235779
2.169000    1674.398773
2.170000    1675.345734
2.171000    1679.643585
2.172000    1681.399323
2.173000    1684.419952
2.174000    1685.691681
2.175000    1688.708313
2.176000    1691.255219
2.177000    1694.432800
2.178000    1697.453400
2.179000    1700.635498
2.180000    1703.021698
2.181000    1706.514648
2.182000    1710.183868
2.183000    1713.520905
2.184000    1716.372711
2.185000    1718.924164
2.186000    1724.016876
2.187000    1726.719482
2.188000    1729.099426
2.189000    1734.353363
2.190000    1736.733643
2.191000    1740.873749
2.192000    1743.255554
2.193000    1747.382614
2.194000    1751.046387
2.195000    1754.378494
2.196000    1760.102188
2.197000    1763.921570
2.198000    1767.257233
2.199000    1771.231308
2.200000    1773.923981
2.201000    1778.220840
2.202000    1780.598999
2.203000    1784.887314
2.204000    1787.427887
2.205000    1792.035965
2.206000    1795.373108
2.207000    1800.297714
2.208000    1803.792480
2.209000    1808.081192
2.210000    1811.419678
2.211000    1816.184662
2.212000    1819.363388
2.213000    1822.220337
2.214000    1827.302078
2.215000    1830.473404
2.216000    1834.132141
2.217000    1837.941849
2.218000    1839.841309
2.219000    1844.927155
2.220000    1849.383484
2.221000    1851.925903
2.222000    1854.460342
2.223000    1857.795380
2.224000    1861.443222
2.225000    1863.827179
2.226000    1868.121338
2.227000    1868.742538
2.228000    1870.483429
2.229000    1873.341919
2.230000    1877.003998
2.231000    1878.266190
2.232000    1880.643860
2.233000    1881.914185
2.234000    1882.857666
2.235000    1884.277130
2.236000    1887.933167
2.237000    1887.128403
2.238000    1889.347107
2.239000    1891.089111
2.240000    1891.402969
2.241000    1892.509369
2.242000    1892.344879
2.243000    1893.764038
2.244000    1894.712494
2.245000    1893.108612
2.246000    1894.697891
2.247000    1893.089859
2.248000    1893.089340
2.249000    1893.228027
2.250000    1892.269638
2.251000    1891.305618
2.252000    1890.019318
2.253000    1890.180740
2.254000    1887.782166
2.255000    1886.658020
2.256000    1884.584335
2.257000    1883.617828
2.258000    1879.307541
2.259000    1877.551102
2.260000    1874.353958
2.261000    1872.280777
2.262000    1867.648926
2.263000    1864.779388
2.264000    1859.190567
2.265000    1854.565720
2.266000    1849.305649
2.267000    1844.839264
2.268000    1839.743484
2.269000    1833.196777
2.270000    1826.501465
2.271000    1819.329681
2.272000    1811.999817
2.273000    1804.031998
2.274000    1797.972824
2.275000    1787.128708
2.276000    1779.962280
2.277000    1770.399109
2.278000    1760.842316
2.279000    1749.529831
2.280000    1739.013123
2.281000    1727.533920
2.282000    1715.592026
2.283000    1703.169830
2.284000    1689.303787
2.285000    1675.603363
2.286000    1662.056580
2.287000    1648.682419
2.288000    1634.191132
2.289000    1617.460541
2.290000    1602.006241
2.291000    1583.374374
2.292000    1565.535828
2.293000    1548.972595
2.294000    1528.743896
2.295000    1508.517181
2.296000    1489.565033
2.297000    1469.020638
2.298000    1446.565262
2.299000    1423.314346
2.300000    1400.382126
2.301000    1377.771454
2.302000    1352.609741
2.303000    1328.405556
2.304000    1301.176399
2.305000    1274.585907
2.306000    1245.762474
2.307000    1217.415459
2.308000    1187.004250
2.309000    1156.594872
2.310000    1123.955063
2.311000    1090.682861
2.312000    1056.924591
2.313000    1021.896423
2.314000    987.346260
2.315000    950.728149
2.316000    913.002148
2.317000    876.069977
2.318000    837.856735
2.319000    799.972263
2.320000    760.650936
2.321000    723.562531
2.322000    682.173595
2.323000    643.811775
2.324000    601.471180
2.325000    562.316322
2.326000    521.246424
2.327000    481.147463
2.328000    440.088606
2.329000    396.949427
2.330000    355.412390
2.331000    316.106123
2.332000    276.956120
2.333000    239.074492
2.334000    202.948442
2.335000    172.065576
2.336000    146.121044
2.337000    122.706581
2.338000    100.425996
2.339000    79.408614
2.340000    60.778246
2.341000    47.570757
2.342000    32.918376
2.343000    17.315835
2.344000    5.375719
2.345000    0.099218
2.346000    -0.865821
2.347000    -4.366123
2.348000    -1.510135
2.349000    0.889606
2.350000    3.443108
2.351000    3.761662
2.352000    2.004397
2.353000    1.046382
2.354000    -0.065575
2.355000    1.043864
2.356000    3.283152
2.357000    4.077881
2.358000    3.436249
2.359000    1.845119
2.360000    2.641521
2.361000    2.959744
2.362000    4.707468
2.363000    2.481068
2.364000    2.012762
2.365000    2.963422
2.366000    2.482244
2.367000    2.156650
2.368000    4.233811
2.369000    1.364107
2.370000    2.161006
2.371000    3.118524
2.372000    2.954393
2.373000    2.002558
2.374000    3.439430
2.375000    1.523882
2.376000    3.115178
2.377000    1.369789
2.378000    1.685842
2.379000    2.164684
2.380000    2.480902
2.381000    1.200308
2.382000    2.801643
2.383000    1.040186
2.384000    1.684169
2.385000    2.477225
2.386000    2.636336
2.387000    2.323630
2.388000    2.005075
2.389000    1.043201
2.390000    0.723802
2.391000    1.517024
2.392000    2.796789
2.393000    1.677311
2.394000    2.155821
2.395000    1.198635
2.396000    0.410101
2.397000    1.519375
2.398000    2.955901
2.399000    1.838261
2.400000    3.914594
2.401000    1.836091
2.402000    0.725144
2.403000    1.836422
2.404000    1.202147
2.405000    2.162016
2.406000    1.842618
2.407000    2.480405
2.408000    2.321460
2.409000    1.198801
2.410000    1.350044
2.411000    1.356405
2.412000    1.200308
2.413000    3.109827
2.414000    1.037850
2.415000    1.194278
2.416000    1.359254
2.417000    2.799804
2.418000    1.684004
2.419000    1.841442
2.420000    0.880744
2.421000    2.319620
2.422000    2.155987
2.423000    1.358922
2.424000    1.836257
2.425000    0.880246
2.426000    1.038016
2.427000    0.239610
2.428000    1.675472
2.429000    1.358922
2.430000    0.400229
2.431000    1.039523
2.432000    1.515019
2.433000    1.037850
2.434000    1.519873
2.435000    1.198303
2.436000    2.155158
2.437000    2.472040
2.438000    2.476893
2.439000    0.241448
2.440000    1.834252
2.441000    1.836257
2.442000    2.473713
2.443000    2.783736
2.444000    1.677311
2.445000    2.152641
2.446000    2.473878
2.447000    1.196962
2.448000    2.154479
2.449000    2.473713
2.450000    1.519872
2.451000    1.678818
2.452000    2.472040
2.453000    2.955403
2.454000    2.479063
2.455000    1.358922
2.456000    1.683340
2.457000    3.107988
2.458000    1.999725
2.459000    3.109993
2.460000    2.637512
2.461000    1.677145
2.462000    3.101627
2.463000    3.273461
2.464000    1.991690
2.465000    1.361093
2.466000    0.880412
2.467000    2.473547
2.468000    1.360595
2.469000    0.874217
2.470000    1.194957
2.471000    1.834749
2.472000    1.517205
2.473000    1.995037
2.474000    1.676979
2.475000    1.195454
2.476000    1.678984
2.477000    1.198303
2.478000    2.152475
2.479000    0.880246
2.480000    2.319289
2.481000    1.367288
2.482000    1.516692
2.483000    1.199811
2.484000    1.199811
2.485000    1.194625
2.486000    1.995534
2.487000    2.155821
2.488000    1.045387
2.489000    2.637843
2.490000    0.878573
2.491000    1.990017
2.492000    2.949374
2.493000    1.676482
2.494000    0.712769
2.495000    2.473713
2.496000    1.677145
2.497000    1.358591
2.498000    2.317450
2.499000    1.994705
2.500000    0.721466
2.501000    0.236098
2.502000    1.834584
2.503000    2.310079
2.504000    2.630985
2.505000    1.199811
2.506000    1.036011
2.507000    2.152143
2.508000    1.678487
2.509000    2.637346
2.510000    2.948711
2.511000    2.154314
2.512000    3.275134
2.513000    1.045718
2.514000    1.041362
2.515000    1.678652
2.516000    1.677311
2.517000    1.840613
2.518000    1.519873
2.519000    1.673467
2.520000    0.714608
2.521000    2.630654
2.522000    0.559506
2.523000    1.357415
2.524000    1.672292
2.525000    1.675306
2.526000    1.034670
2.527000    1.512683
2.528000    1.991193
2.529000    0.081674
2.530000    1.672291
2.531000    0.242956
2.532000    3.430899
2.533000    2.794785
2.534000    0.719461
2.535000    1.035846
2.536000    2.155821
2.537000    1.989686
2.538000    1.989851
2.539000    2.314601
2.540000    0.720969
2.541000    1.042870
2.542000    0.878739
2.543000    3.112345
2.544000    0.880246
2.545000    0.717954
2.546000    1.038861
2.547000    2.630985
2.548000    1.834418
2.549000    0.875393
2.550000    1.355410
2.551000    0.555662
2.552000    0.560350
2.553000    1.678155
2.554000    1.356073
2.555000    1.829067
2.556000    2.314104
2.557000    1.672291
2.558000    1.036177
2.559000    1.353903
2.560000    1.198303
2.561000    1.675141
2.562000    0.873388
2.563000    2.314270
2.564000    0.716115
2.565000    1.191942
2.566000    1.037684
2.567000    0.717623
2.568000    0.875724
2.569000    1.196630
2.570000    -0.074091
2.571000    1.516029
2.572000    0.405082
2.573000    1.348884
2.574000    0.876734
2.575000    1.678487
2.576000    1.510000
2.577000    1.354234
2.578000    0.878242
2.579000    0.080498
2.580000    1.516195
2.581000    1.200655
2.582000    2.788092
2.583000    1.514190
2.584000    1.194625
2.585000    0.247975
2.586000    0.721135
2.587000    1.988013
2.588000    1.991525
2.589000    1.198303
2.590000    1.835594
2.591000    1.352561
2.592000    0.717623
2.593000    -0.236383
2.594000    1.042372
2.595000    0.397727
2.596000    -0.395329
2.597000    1.195123
2.598000    1.831237
2.599000    -0.078779
2.600000    2.463840
2.601000    1.511010
2.602000    1.034173
2.603000    -0.396836
2.604000    0.714111
2.605000    0.878076
2.606000    0.239610
2.607000    1.829233
2.608000    0.874895
2.609000    0.555496
2.610000    1.353737
2.611000    0.555994
2.612000    1.671960
2.613000    0.877066
2.614000    0.240620
2.615000    1.988675
2.616000    1.194294
2.617000    1.198138
2.618000    1.194957
2.619000    1.515863
2.620000    1.829398
2.621000    0.559506
2.622000    0.878573
2.623000    1.199811
2.624000    1.201152
2.625000    0.080001
2.626000    1.039358
2.627000    1.514853
2.628000    0.716281
2.629000    1.350557
2.630000    1.029650
2.631000    1.511175
2.632000    0.560350
2.633000    -0.235886
2.634000    0.557335
2.635000    1.358425
2.636000    1.353571
2.637000    -0.719416
2.638000    -1.032106
2.639000    1.506653
2.640000    1.519872
2.641000    3.592859
2.642000    1.350557
2.643000    0.882929
2.644000    -0.080286
2.645000    -0.406046
2.646000    1.517039
2.647000    0.077152
2.648000    -0.719416
2.649000    -0.392480
2.650000    -0.404042
2.651000    0.081508
2.652000    2.631995
2.653000    0.707915
2.654000    -0.397333
2.655000    -0.082125
2.656000    1.824213
2.657000    3.747962
2.658000    1.188596
2.659000    -1.353857
2.660000    -2.952674
2.661000    -0.239729
2.662000    2.311602
2.663000    1.665102
2.664000    -1.840898
2.665000    -1.035287
2.666000    2.624458
2.667000    4.544529
2.668000    5.659320
2.669000    4.215920
2.670000    4.546202
2.671000    4.706142
2.672000    4.543353
2.673000    5.023868
2.674000    2.311255
2.675000    1.356918
2.676000    1.519209
2.677000    1.989520
2.678000    2.153817
2.679000    2.471377
2.680000    2.468527
2.681000    2.476562
2.682000    1.835759
2.683000    2.791770
2.684000    4.549880
2.685000    3.902717
2.686000    0.083347
2.687000    -0.559294
2.688000    -0.880200
2.689000    -0.401690
2.690000    -1.673919
2.691000    -1.680114
2.692000    -1.841064
2.693000    -2.480193
2.694000    -1.989127
2.695000    -2.315218
2.696000    -0.880200
2.697000    -2.794738
2.698000    -2.947489
2.699000    -2.312882
2.700000    -1.203608
2.701000    -1.195077
2.702000    -1.672743
2.703000    -0.085803
2.704000    -0.403694
2.705000    0.554486
2.706000    -0.400348
2.707000    1.512683
2.708000    1.989686
2.709000    2.634679
2.710000    1.038695
2.711000    3.264929
2.712000    1.199313
2.713000    1.674809
2.714000    2.151978
2.715000    2.630488
2.716000    3.102637
2.717000    3.582323
2.718000    2.629146
2.719000    3.107159
2.720000    2.789268
2.721000    2.789268
2.722000    2.471542
2.723000    1.360264
2.724000    1.671794
2.725000    0.397892
2.726000    1.358259
2.727000    1.353571
2.728000    0.714277
2.729000    0.237440
2.730000    0.078494
2.731000    0.237605
2.732000    1.352064
2.733000    0.235766
2.734000    1.351898
2.735000    0.082006
2.736000    1.830906
2.737000    0.873388
2.738000    0.399731
2.739000    0.238284
2.740000    1.669955
2.741000    0.557170
2.742000    -0.720078
2.743000    -0.727102
2.744000    -0.087144
2.745000    0.076158
2.746000    -0.403529
2.747000    -0.882039
2.748000    0.553658
2.749000    0.396054
2.750000    1.516195
2.751000    1.676316
2.752000    1.032499
2.753000    1.032002
2.754000    1.833589
2.755000    1.992535
2.756000    2.948214
2.757000    2.307411
2.758000    2.791604
2.759000    3.265095
2.760000    2.309250
2.761000    4.066350
2.762000    1.989851
2.763000    0.876403
2.764000    2.632327
2.765000    2.948379
2.766000    2.307411
2.767000    2.469703
2.768000    0.393536
2.769000    1.348883
2.770000    -0.238222
2.771000    0.554834
2.772000    -0.562640
2.773000    0.393039
2.774000    0.868369
2.775000    0.080001
2.776000    -0.084296
2.777000    -0.556113
2.778000    -0.402187
2.779000    -0.241402
2.780000    1.512848
2.781000    1.035348
2.782000    -1.036297
2.783000    0.876237
2.784000    0.237605
2.785000    0.717457
2.786000    0.553823
2.787000    0.722145
2.788000    0.240951
2.789000    0.077996
2.790000    -0.559128
2.791000    0.237771
2.792000    0.234425
2.793000    1.510181
2.794000    -0.080618
2.795000    -0.080949
2.796000    -0.880532
2.797000    0.395888
2.798000    1.194625
2.799000    1.028987
2.800000    1.191279
2.801000    1.037021
2.802000    -0.241568
2.803000    0.237440
2.804000    1.191445
2.805000    1.032499
2.806000    1.194957
2.807000    1.508674
2.808000    1.195636
2.809000    0.555331
2.810000    1.356420
2.811000    0.712272
2.812000    0.558511
2.813000    1.989851
2.814000    1.193118
2.815000    1.673136
2.816000    1.512186
2.817000    1.351733
2.818000    0.232254
2.819000    1.512185
2.820000    1.669955
2.821000    1.355079
2.822000    -0.716732
2.823000    0.873554
2.824000    0.717788
2.825000    0.237440
2.826000    1.035680
2.827000    1.192787
2.828000    -0.715225
2.829000    1.197640
2.830000    1.353406
2.831000    0.399731
2.832000    0.232586
2.833000    1.509171
2.834000    0.079504
2.835000    0.237440
2.836000    0.868203
2.837000    0.391531
2.838000    1.347210
2.839000    0.555331
2.840000    0.555165
2.841000    0.076489
2.842000    1.669790
2.843000    1.666609
2.844000    0.720803
2.845000    0.876237
2.846000    1.351567
2.847000    1.514190
2.848000    0.872228
2.849000    3.107325
2.850000    -0.077603
2.851000    1.185597
2.852000    1.517536
2.853000    1.035846
2.854000    1.032002
2.855000    1.187436
2.856000    0.875227
2.857000    1.350225
2.858000    1.351567
2.859000    0.242127
2.860000    0.874730
2.861000    1.351567
2.862000    1.667951
2.863000    1.513014
2.864000    1.512185
2.865000    2.470879
2.866000    2.784083
2.867000    2.306401
2.868000    1.507498
2.869000    3.096623
2.870000    64.010174
2.871000    125.708988
2.872000    135.492128
2.873000    86.169119
2.874000    186.291017
2.875000    314.033954
2.876000    383.997791
2.877000    372.152233
2.878000    349.137892
2.879000    389.377790
2.880000    518.133049
2.881000    620.783649
2.882000    639.215843
2.883000    679.473335
2.884000    801.200089
2.885000    978.321350
2.886000    1136.938522
2.887000    1264.462967
2.888000    1419.509064
2.889000    1649.832550
2.890000    1857.620239
2.891000    1953.347046
2.892000    1892.031128
2.893000    1734.335785
2.894000    1545.743378
2.895000    1358.716995
2.896000    1166.538666
2.897000    1009.317993
2.898000    902.594864
2.899000    846.156403
2.900000    809.672806
2.901000    781.176300
2.902000    768.330231
2.903000    795.554199
2.904000    848.814590
2.905000    914.515732
2.906000    970.115967
2.907000    1024.031601
2.908000    1080.793854
2.909000    1135.607697
2.910000    1166.240051
2.911000    1173.562714
2.912000    1175.767670
2.913000    1189.158752
2.914000    1221.171509
2.915000    1258.433228
2.916000    1298.272583
2.917000    1348.286957
2.918000    1409.301025
2.919000    1470.970795
2.920000    1526.725922
2.921000    1574.365295
2.922000    1612.277863
2.923000    1646.518188
2.924000    1673.446198
2.925000    1702.123047
2.926000    1733.983429
2.927000    1772.389282
2.928000    1816.216217
2.929000    1863.235535
2.930000    1908.505493
2.931000    1954.407776
2.932000    2003.659393
2.933000    2051.957031
2.934000    2100.890594
2.935000    2149.035431
2.936000    2196.063416
2.937000    2255.374878
2.938000    2312.160950
2.939000    2362.087708
2.940000    2407.232422
2.941000    2461.176331
2.942000    2524.991394
2.943000    2589.934448
2.944000    2655.373779
2.945000    2718.251709
2.946000    2780.342957
2.947000    2858.653442
2.948000    3040.383911
2.949000    3268.916443
2.950000    3393.584045
2.951000    3423.950806
2.952000    3522.140381
2.953000    3699.089844
2.954000    3840.431152
2.955000    3900.847473
2.956000    3938.794678
2.957000    3981.046143
2.958000    4008.707947
2.959000    4001.021118
2.960000    3966.943420
2.961000    3918.302246
2.962000    3859.132385
2.963000    3793.359314
2.964000    3721.660889
2.965000    3641.197266
2.966000    3556.702454
2.967000    3467.583252
2.968000    3374.336182
2.969000    3279.784363
2.970000    3183.336975
2.971000    3089.768005
2.972000    3006.224060
2.973000    2936.082764
2.974000    2890.325439
2.975000    2852.422913
2.976000    2791.784485
2.977000    2716.312378
2.978000    2661.078186
2.979000    2632.018372
2.980000    2602.309265
2.981000    2548.219299
2.982000    2485.385010
2.983000    2430.671021
2.984000    2390.626160
2.985000    2349.476196
2.986000    2302.586029
2.987000    2252.184723
2.988000    2209.604584
2.989000    2172.594421
2.990000    2136.392029
2.991000    2098.272858
2.992000    2060.637573
2.993000    2026.979675
2.994000    1996.038727
2.995000    1971.159698
2.996000    1948.187073
2.997000    1923.779724
2.998000    1901.603180
2.999000    1880.390137
3.000000    1857.587311
3.001000    1837.326477
3.002000    1817.234467
3.003000    1800.644226
3.004000    1781.981354
3.005000    1764.604950
3.006000    1747.057220
3.007000    1728.883423
3.008000    1712.622101
3.009000    1697.315521
3.010000    1681.533905
3.011000    1667.497711
3.012000    1653.791931
3.013000    1640.087830
3.014000    1627.326904
3.015000    1615.375519
3.016000    1603.423676
3.017000    1592.104919
3.018000    1580.633606
3.019000    1570.905304
3.020000    1562.458771
3.021000    1552.101440
3.022000    1544.456329
3.023000    1536.490692
3.024000    1529.478180
3.025000    1524.697754
3.026000    1518.960846
3.027000    1515.452332
3.028000    1511.624969
3.029000    1510.195435
3.030000    1509.711273
3.031000    1507.317352
3.032000    1506.844696
3.033000    1507.319031
3.034000    1508.115631
3.035000    1509.382294
3.036000    1511.770996
3.037000    1513.368622
3.038000    1516.711731
3.039000    1519.103058
3.040000    1521.813141
3.041000    1525.158844
3.042000    1529.779785
3.043000    1533.446136
3.044000    1536.786957
3.045000    1542.053070
3.046000    1546.510590
3.047000    1551.778534
3.048000    1556.079071
3.049000    1563.090912
3.050000    1568.348145
3.051000    1574.254761
3.052000    1579.193634
3.053000    1583.180969
3.054000    1589.237091
3.055000    1595.619354
3.056000    1599.284302
3.057000    1605.026245
3.058000    1609.959229
3.059000    1614.903290
3.060000    1620.326508
3.061000    1625.431976
3.062000    1629.731079
3.063000    1634.360260
3.064000    1640.572418
3.065000    1644.240936
3.066000    1650.925842
3.067000    1656.030304
3.068000    1660.809570
3.069000    1663.512115
3.070000    1668.775909
3.071000    1674.037292
3.072000    1678.499023
3.073000    1681.684296
3.074000    1688.382050
3.075000    1692.366058
3.076000    1696.340179
3.077000    1699.372375
3.078000    1703.512970
3.079000    1707.332336
3.080000    1708.769897
3.081000    1710.040771
3.082000    1712.269348
3.083000    1714.505310
3.084000    1714.823669
3.085000    1715.933472
3.086000    1715.772491
3.087000    1714.811951
3.088000    1713.538605
3.089000    1711.305786
3.090000    1709.869659
3.091000    1708.593170
3.092000    1705.568726
3.093000    1703.013245
3.094000    1699.344635
3.095000    1695.840607
3.096000    1692.488556
3.097000    1688.823944
3.098000    1684.200134
3.099000    1679.739441
3.100000    1676.381165
3.101000    1671.598602
3.102000    1665.703186
3.103000    1661.078857
3.104000    1654.542358
3.105000    1649.430237
3.106000    1643.539185
3.107000    1637.473969
3.108000    1631.731506
3.109000    1626.309326
3.110000    1619.765778
3.111000    1612.121490
3.112000    1604.939148
3.113000    1598.400726
3.114000    1591.230255
3.115000    1583.248352
3.116000    1575.280487
3.117000    1567.142792
3.118000    1560.284882
3.119000    1551.838867
3.120000    1543.702209
3.121000    1535.408600
3.122000    1526.800476
3.123000    1518.349762
3.124000    1511.012512
3.125000    1503.353821
3.126000    1494.750031
3.127000    1487.728333
3.128000    1479.601868
3.129000    1473.702850
3.130000    1465.566833
3.131000    1457.436707
3.132000    1449.787415
3.133000    1443.080536
3.134000    1435.108704
3.135000    1427.612671
3.136000    1420.753540
3.137000    1414.539642
3.138000    1407.998260
3.139000    1401.301147
3.140000    1395.241486
3.141000    1387.898529
3.142000    1380.563614
3.143000    1373.704544
3.144000    1367.966263
3.145000    1361.430939
3.146000    1355.843414
3.147000    1349.466202
3.148000    1344.212814
3.149000    1337.827209
3.150000    1331.608475
3.151000    1326.348862
3.152000    1321.091797
3.153000    1316.145233
3.154000    1310.567444
3.155000    1306.740372
3.156000    1302.750473
3.157000    1298.284103
3.158000    1294.453537
3.159000    1289.995529
3.160000    1286.321884
3.161000    1282.982346
3.162000    1279.309189
3.163000    1276.919159
3.164000    1274.211578
3.165000    1271.179581
3.166000    1267.668869
3.167000    1266.555588
3.168000    1263.211578
3.169000    1260.814331
3.170000    1258.896774
3.171000    1257.950790
3.172000    1256.511246
3.173000    1255.080582
3.174000    1254.598892
3.175000    1253.005585
3.176000    1252.530273
3.177000    1251.733871
3.178000    1251.732193
3.179000    1252.372833
3.180000    1252.843811
3.181000    1251.091385
3.182000    1251.726852
3.183000    1253.325485
3.184000    1251.891281
3.185000    1252.212036
3.186000    1252.373138
3.187000    1253.651566
3.188000    1253.813675
3.189000    1254.128082
3.190000    1255.564285
3.191000    1255.249207
3.192000    1257.804230
3.193000    1257.796356
3.194000    1258.125290
3.195000    1262.113342
3.196000    1260.841446
3.197000    1262.908081
3.198000    1263.230972
3.199000    1265.941910
3.200000    1268.176697
3.201000    1270.573608
3.202000    1273.121765
3.203000    1273.919846
3.204000    1275.683594
3.205000    1278.079666
3.206000    1279.033173
3.207000    1282.385086
3.208000    1284.615509
3.209000    1285.889420
3.210000    1288.607727
3.211000    1289.885986
3.212000    1292.280716
3.213000    1292.923355
3.214000    1294.516830
3.215000    1296.751587
3.216000    1298.185623
3.217000    1299.304749
3.218000    1302.333267
3.219000    1303.771133
3.220000    1304.569016
3.221000    1306.805008
3.222000    1307.445267
3.223000    1308.881805
3.224000    1311.272522
3.225000    1312.711746
3.226000    1313.509155
3.227000    1313.669617
3.228000    1315.894485
3.229000    1316.062317
3.230000    1317.336227
3.231000    1318.775253
3.232000    1319.099365
3.233000    1319.251938
3.234000    1321.968216
3.235000    1321.007187
3.236000    1322.442245
3.237000    1322.444229
3.238000    1322.442566
3.239000    1321.328278
3.240000    1322.919037
3.241000    1322.124695
3.242000    1321.010025
3.243000    1323.080673
3.244000    1322.605179
3.245000    1323.556000
3.246000    1322.602005
3.247000    1322.595795
3.248000    1323.075821
3.249000    1322.919037
3.250000    1322.753082
3.251000    1321.322067
3.252000    1321.636780
3.253000    1320.676727
3.254000    1320.512756
3.255000    1318.119919
3.256000    1319.078247
3.257000    1318.438278
3.258000    1316.997574
3.259000    1315.724304
3.260000    1315.081528
3.261000    1313.328125
3.262000    1313.647507
3.263000    1311.250244
3.264000    1310.457184
3.265000    1309.814224
3.266000    1308.859055
3.267000    1308.529938
3.268000    1307.415344
3.269000    1306.459656
3.270000    1306.296524
3.271000    1304.223709
3.272000    1303.582077
3.273000    1303.423615
3.274000    1301.984543
3.275000    1300.227478
3.276000    1300.868423
3.277000    1297.038025
3.278000    1295.919861
3.279000    1294.164108
3.280000    1293.516769
3.281000    1291.446808
3.282000    1289.535797
3.283000    1287.781693
3.284000    1287.305679
3.285000    1282.677887
3.286000    1282.358627
3.287000    1279.651367
3.288000    1279.012085
3.289000    1276.618515
3.290000    1272.951904
3.291000    1273.266953
3.292000    1270.401947
3.293000    1269.759460
3.294000    1266.258133
3.295000    1264.502853
3.296000    1262.904724
3.297000    1261.162155
3.298000    1259.242462
3.299000    1257.964371
3.300000    1255.738297
3.301000    1253.509048
3.302000    1251.589493
3.303000    1249.363602
3.304000    1247.929565
3.305000    1246.815948
3.306000    1244.585678
3.307000    1244.109680
3.308000    1240.924957
3.309000    1241.075821
3.310000    1238.849762
3.311000    1236.302475
3.312000    1233.907425
3.313000    1233.271133
3.314000    1232.307587
3.315000    1229.609375
3.316000    1228.656860
3.317000    1225.627213
3.318000    1223.714523
3.319000    1222.920975
3.320000    1221.641174
3.321000    1219.407944
3.322000    1219.742554
3.323000    1216.545761
3.324000    1214.318512
3.325000    1212.878967
3.326000    1212.564606
3.327000    1212.885803
3.328000    1209.854996
3.329000    1207.466309
3.330000    1206.666199
3.331000    1205.233551
3.332000    1205.398331
3.333000    1201.721497
3.334000    1202.686386
3.335000    1200.937988
3.336000    1201.090408
3.337000    1199.498611
3.338000    1199.180389
3.339000    1197.903137
3.340000    1197.588440
3.341000    1196.630905
3.342000    1194.716400
3.343000    1194.233185
3.344000    1193.127960
3.345000    1192.971176
3.346000    1192.007462
3.347000    1190.259384
3.348000    1189.300705
3.349000    1188.505142
3.350000    1188.667786
3.351000    1186.759903
3.352000    1187.072601
3.353000    1185.798889
3.354000    1184.845551
3.355000    1185.166107
3.356000    1184.045151
3.357000    1183.412369
3.358000    1182.456192
3.359000    1181.976501
3.360000    1179.108963
3.361000    1179.910385
3.362000    1177.996338
3.363000    1176.883072
3.364000    1176.885895
3.365000    1175.926880
3.366000    1172.898224
3.367000    1172.581680
3.368000    1170.195160
3.369000    1168.281952
3.370000    1167.008743
3.371000    1166.851974
3.372000    1164.460754
3.373000    1163.024200
3.374000    1159.837784
3.375000    1158.406754
3.376000    1155.856140
3.377000    1153.949646
3.378000    1152.673538
3.379000    1150.764191
3.380000    1149.018311
3.381000    1144.234756
3.382000    1144.073593
3.383000    1141.846207
3.384000    1138.656418
3.385000    1136.591980
3.386000    1133.879364
3.387000    1131.490829
3.388000    1128.786102
3.389000    1126.718307
3.390000    1125.122330
3.391000    1122.417267
3.392000    1119.704636
3.393000    1115.881256
3.394000    1116.204330
3.395000    1113.015381
3.396000    1108.878494
3.397000    1106.329315
3.398000    1103.942444
3.399000    1102.509476
3.400000    1100.277023
3.401000    1097.888138
3.402000    1095.181900
3.403000    1091.678757
3.404000    1090.085632
3.405000    1088.968842
3.406000    1084.191605
3.407000    1081.488693
3.408000    1079.255951
3.409000    1077.665344
3.410000    1074.321121
3.411000    1073.201828
3.412000    1071.137863
3.413000    1067.632553
3.414000    1064.768860
3.415000    1063.337372
3.416000    1060.950180
3.417000    1059.993469
3.418000    1056.807892
3.419000    1055.377716
3.420000    1052.515366
3.421000    1050.599838
3.422000    1049.495926
3.423000    1046.944778
3.424000    1045.826935
3.425000    1043.917633
3.426000    1042.167725
3.427000    1040.574768
3.428000    1039.298828
3.429000    1038.190247
3.430000    1034.214951
3.431000    1035.331375
3.432000    1033.420746
3.433000    1032.627335
3.434000    1029.603180
3.435000    1028.650192
3.436000    1027.698547
3.437000    1027.066956
3.438000    1025.317902
3.439000    1023.244080
3.440000    1023.249756
3.441000    1022.613983
3.442000    1022.145721
3.443000    1021.351654
3.444000    1019.436951
3.445000    1019.451172
3.446000    1019.614304
3.447000    1019.137833
3.448000    1017.225464
3.449000    1018.029541
3.450000    1016.761871
3.451000    1017.882309
3.452000    1016.293381
3.453000    1015.979523
3.454000    1012.956894
3.455000    1015.035751
3.456000    1013.764511
3.457000    1012.814865
3.458000    1011.388046
3.459000    1010.593826
3.460000    1009.170532
3.461000    1010.765198
3.462000    1008.863525
3.463000    1007.107117
3.464000    1008.398270
3.465000    1005.854324
3.466000    1005.860840
3.467000    1004.752090
3.468000    1003.155945
3.469000    1002.052383
3.470000    1001.743683
3.471000    1000.152237
3.472000    999.202927
3.473000    999.361221
3.474000    998.091507
3.475000    997.624039
3.476000    995.875641
3.477000    996.511108
3.478000    994.447174
3.479000    995.406860
3.480000    996.529526
3.481000    994.299133
3.482000    994.945084
3.483000    993.983917
3.484000    993.516785
3.485000    991.922958
3.486000    991.773407
3.487000    992.404327
3.488000    991.291534
3.489000    991.933350
3.490000    990.820053
3.491000    990.507019
3.492000    990.822937
3.493000    990.987564
3.494000    988.919113
3.495000    989.709473
3.496000    989.876465
3.497000    989.555069
3.498000    987.966446
3.499000    988.128403
3.500000    988.129745
3.501000    985.892609
3.502000    987.013947
3.503000    986.063095
3.504000    985.104111
3.505000    984.788071
3.506000    982.081619
3.507000    981.597778
3.508000    980.809738
3.509000    979.208069
3.510000    977.137589
3.511000    976.341187
3.512000    974.436371
3.513000    972.524338
3.514000    971.087463
3.515000    968.701950
3.516000    966.150986
3.517000    967.267609
3.518000    962.330597
3.519000    959.621140
3.520000    957.230484
3.521000    954.688339
3.522000    951.501404
3.523000    949.591721
3.524000    945.928482
3.525000    942.576218
3.526000    940.031067
3.527000    936.054108
3.528000    934.460953
3.529000    930.633240
3.530000    929.838501
3.531000    927.446960
3.532000    923.462280
3.533000    921.232712
3.534000    920.762085
3.535000    916.774216
3.536000    916.461182
3.537000    912.154938
3.538000    912.156265
3.539000    911.045013
3.540000    911.686996
3.541000    910.413574
3.542000    909.620697
3.543000    909.305313
3.544000    910.107086
3.545000    910.272385
3.546000    911.242462
3.547000    912.200821
3.548000    912.368958
3.549000    914.767548
3.550000    916.052185
3.551000    917.171143
3.552000    919.566559
3.553000    920.693588
3.554000    921.818573
3.555000    923.099701
3.556000    925.974762
3.557000    927.255539
3.558000    929.813904
3.559000    929.665161
3.560000    930.785980
3.561000    932.547104
3.562000    933.831741
3.563000    935.115524
3.564000    935.762512
3.565000    936.722885
3.566000    938.486877
3.567000    936.581543
3.568000    939.131516
3.569000    939.943665
3.570000    939.953354
3.571000    939.961761
3.572000    938.848618
3.573000    938.853333
3.574000    939.341049
3.575000    939.187286
3.576000    937.753098
3.577000    937.767166
3.578000    935.538803
3.579000    934.268066
3.580000    933.637970
3.581000    930.772446
3.582000    929.025375
3.583000    927.434097
3.584000    924.252350
3.585000    923.143768
3.586000    920.435333
3.587000    916.135620
3.588000    914.550522
3.589000    910.408752
3.590000    908.184860
3.591000    903.403442
3.592000    901.343521
3.593000    898.310852
3.594000    893.847000
3.595000    890.030975
3.596000    886.363693
3.597000    881.113632
3.598000    877.605301
3.599000    872.664444
3.600000    867.729294
3.601000    863.908081
3.602000    857.851257
3.603000    853.549698
3.604000    848.135193
3.605000    842.236145
3.606000    837.775131
3.607000    832.841660
3.608000    826.623032
3.609000    821.529434
3.610000    815.779449
3.611000    810.842438
3.612000    806.065216
3.613000    798.894119
3.614000    793.634033
3.615000    788.209808
3.616000    781.999237
3.617000    774.828125
3.618000    771.318771
3.619000    764.144485
3.620000    758.719757
3.621000    752.507370
3.622000    746.606644
3.623000    741.034180
3.624000    733.373688
3.625000    728.913849
3.626000    723.014465
3.627000    717.271179
3.628000    712.333496
3.629000    705.325348
3.630000    700.693176
3.631000    693.361282
3.632000    686.508224
3.633000    681.085678
3.634000    676.309799
3.635000    671.043015
3.636000    663.554016
3.637000    659.565475
3.638000    653.351410
3.639000    646.967316
3.640000    642.353882
3.641000    636.448990
3.642000    630.552963
3.643000    624.489456
3.644000    619.073593
3.645000    614.609055
3.646000    608.876846
3.647000    603.300522
3.648000    598.192871
3.649000    592.767288
3.650000    588.466400
3.651000    583.690018
3.652000    577.464874
3.653000    573.807800
3.654000    568.541016
3.655000    564.400589
3.656000    558.504555
3.657000    554.357758
3.658000    549.256950
3.659000    545.269928
3.660000    541.925873
3.661000    538.259438
3.662000    533.634460
3.663000    529.486320
3.664000    524.392220
3.665000    522.002342
3.666000    516.899353
3.667000    513.076820
3.668000    510.208427
3.669000    506.861053
3.670000    502.245773
3.671000    499.688431
3.672000    495.542305
3.673000    492.995667
3.674000    487.421356
3.675000    484.862175
3.676000    480.883865
3.677000    478.490479
3.678000    475.462822
3.679000    472.756409
3.680000    469.724060
3.681000    465.905022
3.682000    464.624596
3.683000    461.757896
3.684000    459.054153
3.685000    456.339874
3.686000    453.799423
3.687000    451.877869
3.688000    450.125450
3.689000    447.741768
3.690000    445.191124
3.691000    443.278595
3.692000    442.005188
3.693000    440.410049
3.694000    438.182144
3.695000    436.113510
3.696000    434.677643
3.697000    434.356575
3.698000    433.241623
3.699000    430.695816
3.700000    430.694633
3.701000    429.264320
3.702000    427.346596
3.703000    428.466400
3.704000    427.991074
3.705000    426.241844
3.706000    426.717506
3.707000    426.559738
3.708000    424.485413
3.709000    425.761497
3.710000    425.284325
3.711000    426.559227
3.712000    424.174881
3.713000    426.566940
3.714000    424.805153
3.715000    426.248383
3.716000    425.445786
3.717000    426.245369
3.718000    428.158562
3.719000    428.320854
3.720000    428.633560
3.721000    429.913651
3.722000    430.556305
3.723000    431.349525
3.724000    432.463989
3.725000    433.103447
3.726000    435.657112
3.727000    435.497833
3.728000    438.207428
3.729000    438.039948
3.730000    440.756401
3.731000    442.512840
3.732000    444.904564
3.733000    447.774437
3.734000    448.261650
3.735000    451.441055
3.736000    453.674995
3.737000    454.471733
3.738000    458.137177
3.739000    460.850967
3.740000    463.560562
3.741000    468.970894
3.742000    474.392776
3.743000    481.409126
3.744000    486.994804
3.745000    486.987953
3.746000    489.854324
3.747000    497.030296
3.748000    504.206924
3.749000    509.468521
3.750000    514.722763
3.751000    521.418533
3.752000    528.107140
3.753000    534.492905
3.754000    538.475067
3.755000    542.618027
3.756000    550.591728
3.757000    556.170563
3.758000    563.185570
3.759000    568.926842
3.760000    574.192963
3.761000    581.840912
3.762000    588.532684
3.763000    591.725159
3.764000    598.579887
3.765000    605.440620
3.766000    610.696533
3.767000    617.395653
3.768000    623.780609
3.769000    628.561523
3.770000    635.734985
3.771000    641.153687
3.772000    649.766846
3.773000    655.828873
3.774000    662.522980
3.775000    669.709503
3.776000    681.518326
3.777000    692.848297
3.778000    700.835556
3.779000    707.048981
3.780000    712.162186
3.781000    723.327011
3.782000    733.387070
3.783000    743.599579
3.784000    752.694275
3.785000    761.480637
3.786000    772.812592
3.787000    785.270416
3.788000    794.369965
3.789000    804.747437
3.790000    811.932770
3.791000    821.511169
3.792000    834.447006
3.793000    846.571198
3.794000    855.201462
3.795000    865.746933
3.796000    876.124741
3.797000    886.820267
3.798000    895.923630
3.799000    907.426102
3.800000    918.278946
3.801000    928.181885
3.802000    938.240631
3.803000    946.860855
3.804000    955.808640
3.805000    966.184769
3.806000    976.084549
3.807000    985.186966
3.808000    993.643021
3.809000    1002.111130
3.810000    1010.732651
3.811000    1018.557816
3.812000    1027.176361
3.813000    1034.517960
3.814000    1042.019699
3.815000    1049.528427
3.816000    1055.915710
3.817000    1061.984543
3.818000    1068.688553
3.819000    1074.114090
3.820000    1081.294403
3.821000    1084.963745
3.822000    1089.920486
3.823000    1094.707230
3.824000    1099.184631
3.825000    1103.490768
3.826000    1106.844147
3.827000    1111.795547
3.828000    1114.664261
3.829000    1116.103485
3.830000    1121.842224
3.831000    1123.605713
3.832000    1124.564545
3.833000    1128.385925
3.834000    1128.871277
3.835000    1132.219833
3.836000    1131.902298
3.837000    1134.610413
3.838000    1134.607712
3.839000    1136.524078
3.840000    1136.204193
3.841000    1137.629501
3.842000    1137.633011
3.843000    1139.066040
3.844000    1136.990509
3.845000    1137.302200
3.846000    1135.548462
3.847000    1136.503296
3.848000    1134.102036
3.849000    1132.827484
3.850000    1129.638535
3.851000    1130.268433
3.852000    1128.031326
3.853000    1125.637421
3.854000    1122.764343
3.855000    1120.683838
3.856000    1119.403885
3.857000    1116.689957
3.858000    1112.381180
3.859000    1111.731323
3.860000    1108.229340
3.861000    1105.985550
3.862000    1103.591644
3.863000    1098.639893
3.864000    1096.880783
3.865000    1092.883545
3.866000    1089.845673
3.867000    1086.334991
3.868000    1083.780991
3.869000    1079.946716
3.870000    1075.955856
3.871000    1073.562958
3.872000    1068.446426
3.873000    1065.572510
3.874000    1061.102478
3.875000    1057.904144
3.876000    1054.710190
3.877000    1051.357071
3.878000    1046.252441
3.879000    1043.690201
3.880000    1038.904602
3.881000    1034.908203
3.882000    1031.873703
3.883000    1027.884308
3.884000    1021.977097
3.885000    1018.776932
3.886000    1015.428696
3.887000    1012.231369
3.888000    1006.009552
3.889000    1003.131836
3.890000    999.141098
3.891000    995.307159
3.892000    991.323318
3.893000    987.486557
3.894000    984.288757
3.895000    980.617584
3.896000    976.630386
3.897000    974.548920
3.898000    970.085709
3.899000    966.882339
3.900000    962.412796
3.901000    959.691666
3.902000    956.186172
3.903000    950.920837
3.904000    948.364670
3.905000    944.848129
3.906000    941.492706
3.907000    938.147018
3.908000    935.269745
3.909000    931.437805
3.910000    928.240341
3.911000    925.695038
3.912000    921.226501
3.913000    917.553497
3.914000    915.160965
3.915000    911.171417
3.916000    909.410980
3.917000    906.380157
3.918000    904.305145
3.919000    902.220642
3.920000    897.760788
3.921000    895.367401
3.922000    895.845901
3.923000    892.012802
3.924000    890.735565
3.925000    887.709930
3.926000    885.946457
3.927000    883.707306
3.928000    882.269302
3.929000    881.471207
3.930000    880.994843
3.931000    880.350250
3.932000    878.283783
3.933000    877.478348
3.934000    875.567291
3.935000    873.011978
3.936000    872.375504
3.937000    873.654785
3.938000    871.575958
3.939000    871.096069
3.940000    872.050949
3.941000    869.977615
3.942000    870.456451
3.943000    870.930298
3.944000    870.295685
3.945000    869.495102
3.946000    870.450775
3.947000    869.815170
3.948000    868.219849
3.949000    871.091904
3.950000    871.247025
3.951000    870.769852
3.952000    869.658401
3.953000    871.571259
3.954000    872.689072
3.955000    872.689728
3.956000    873.962631
3.957000    873.324203
3.958000    875.561646
3.959000    877.317230
3.960000    877.154922
3.961000    877.159149
3.962000    877.791595
3.963000    879.070160
3.964000    879.874756
3.965000    881.620148
3.966000    882.895218
3.967000    883.696991
3.968000    883.214279
3.969000    884.811111
3.970000    886.568542
3.971000    887.851334
3.972000    888.483414
3.973000    889.454346
3.974000    890.723557
3.975000    892.477493
3.976000    893.436829
3.977000    894.070297
3.978000    895.824722
3.979000    896.946884
3.980000    898.220612
3.981000    899.341934
3.982000    901.409424
3.983000    902.851959
3.984000    903.330292
3.985000    903.494583
3.986000    904.770691
3.987000    906.042587
3.988000    907.958633
3.989000    911.628418
3.990000    910.989136
3.991000    912.274078
3.992000    913.388702
3.993000    914.185776
3.994000    916.738602
3.995000    917.379257
3.996000    917.377228
3.997000    918.502075
3.998000    919.293259
3.999000    920.096390
