BioWare Version 5.3.0.7 Export
Device:	4827094 9260AA6	4827095 9260AA6
Samples (#):	4000	4000
Rate (Hz):	1000.000000	1000.000000
Contact period start (sample #):	0	0
Contact period end (sample #):	3999	3999
Contact period start time (s):	0.000000	0.000000
Contact period end time (s):	3.999000	3.999000
First sample time (s):	0.000000	0.000000
Normalized force (N):	0.727714	0.727714
Normalized length (m):	1.000000	1.000000
File Information
Date	Nov 14, 2016  07:17:13
Name	
ID	
Classification	
Description	
abs time (s)	Fz	Fz
	N	N
0.000000	725.085564	945.428116
0.001000	724.770645	946.391525
0.002000	723.656700	945.115112
0.003000	724.609718	945.913193
0.004000	724.134674	946.545944
0.005000	724.292984	946.070282
0.006000	724.135201	947.032669
0.007000	724.930916	945.912857
0.008000	724.769478	946.550980
0.009000	723.974274	947.186905
0.010000	723.815300	946.388504
0.011000	726.201485	946.868515
0.012000	725.407234	945.906845
0.013000	723.975899	945.755585
0.014000	725.089676	947.351898
0.015000	723.817642	945.745697
0.016000	724.450439	946.869888
0.017000	725.090340	948.140564
0.018000	722.862968	947.031174
0.019000	723.339294	947.188461
0.020000	723.022896	946.870880
0.021000	723.818306	947.504654
0.022000	723.181511	947.821014
0.023000	724.136665	947.027466
0.024000	723.497749	945.275726
0.025000	723.340958	947.823013
0.026000	723.180527	946.869888
0.027000	724.134697	946.870041
0.028000	723.340134	946.552475
0.029000	724.136337	946.867172
0.030000	722.705025	946.232574
0.031000	722.864632	946.542450
0.032000	722.705498	945.589630
0.033000	723.497902	946.710953
0.034000	722.385941	946.710785
0.035000	722.068077	947.024780
0.036000	722.228516	946.388504
0.037000	722.226341	946.554153
0.038000	723.023399	946.078186
0.039000	722.547203	945.911026
0.040000	721.272842	946.712616
0.041000	722.387260	946.866867
0.042000	721.591072	946.394547
0.043000	722.068893	947.027634
0.044000	721.750824	946.394882
0.045000	722.068733	944.798569
0.046000	721.272682	947.032852
0.047000	720.637863	945.757278
0.048000	722.068405	947.666626
0.049000	721.751816	947.667267
0.050000	722.386955	944.798248
0.051000	721.590225	946.394409
0.052000	722.069893	947.347397
0.053000	723.183662	946.396545
0.054000	721.432281	945.438156
0.055000	722.863968	945.115799
0.056000	721.116203	945.115967
0.057000	722.547546	945.756607
0.058000	722.069229	946.233948
0.059000	721.431114	946.069275
0.060000	722.226860	947.188110
0.061000	721.432121	944.638779
0.062000	723.023903	946.068787
0.063000	721.908943	946.393372
0.064000	722.546074	946.392868
0.065000	721.590233	947.026794
0.066000	722.544907	947.350235
0.067000	722.544899	946.706238
0.068000	721.908958	946.075150
0.069000	721.432274	946.868698
0.070000	723.023048	945.919235
0.071000	722.227669	946.873047
0.072000	722.863289	947.346725
0.073000	722.702522	947.669800
0.074000	721.750488	946.394379
0.075000	723.339149	947.188934
0.076000	723.337654	947.674454
0.077000	723.341133	947.350067
0.078000	722.385124	947.509018
0.079000	724.293472	946.710449
0.080000	724.135857	946.873245
0.081000	723.021721	947.824890
0.082000	723.340141	947.350052
0.083000	723.498428	946.709579
0.084000	724.293472	947.189789
0.085000	723.656708	946.393066
0.086000	723.340469	946.228912
0.087000	726.361084	947.987671
0.088000	724.768814	948.619110
0.089000	725.247147	947.668442
0.090000	724.927429	947.981461
0.091000	726.200813	948.146957
0.092000	726.676842	947.194443
0.093000	725.087364	947.663406
0.094000	726.358788	947.824051
0.095000	726.836098	948.620621
0.096000	727.629700	946.548798
0.097000	727.471893	946.710770
0.098000	727.472069	947.660248
0.099000	726.677322	947.664627
0.100000	727.470909	947.504318
0.101000	726.996696	947.191788
0.102000	727.789108	947.825562
0.103000	727.950218	947.345505
0.104000	727.470230	947.663406
0.105000	728.108177	946.867020
0.106000	727.948067	948.937515
0.107000	728.743782	946.866684
0.108000	728.584694	946.076828
0.109000	728.743629	947.024628
0.110000	728.108192	946.388687
0.111000	727.787971	946.547440
0.112000	727.948242	947.345688
0.113000	728.903091	946.865341
0.114000	728.107338	946.547302
0.115000	729.697296	946.229065
0.116000	728.903419	945.906830
0.117000	727.947731	946.870712
0.118000	728.427208	946.861679
0.119000	726.993233	944.633255
0.120000	728.584023	946.073624
0.121000	728.745453	945.593628
0.122000	728.742134	946.867172
0.123000	728.427071	945.590622
0.124000	728.585686	946.224396
0.125000	728.109184	946.387009
0.126000	727.632668	946.865005
0.127000	729.222298	947.816193
0.128000	728.585167	945.429489
0.129000	727.631180	944.951294
0.130000	727.632835	946.539261
0.131000	728.267784	944.314529
0.132000	728.904579	945.274216
0.133000	728.110641	946.068787
0.134000	728.428886	946.705231
0.135000	729.062836	945.591949
0.136000	728.428879	946.228394
0.137000	728.428230	946.068939
0.138000	727.474045	945.905136
0.139000	728.747093	946.389023
0.140000	727.314445	946.070450
0.141000	726.676003	946.387009
0.142000	727.157166	946.544113
0.143000	727.315582	946.229736
0.144000	727.315582	945.910019
0.145000	726.838081	944.787323
0.146000	726.521027	946.862167
0.147000	726.519859	946.073792
0.148000	726.360435	945.427795
0.149000	726.520699	946.222855
0.150000	726.521027	946.868866
0.151000	725.724800	947.341019
0.152000	726.520058	946.386826
0.153000	726.361427	946.703400
0.154000	725.884262	945.427795
0.155000	725.567352	945.908325
0.156000	726.521034	945.275894
0.157000	726.362236	946.229416
0.158000	724.929932	945.754059
0.159000	725.090027	946.867172
0.160000	724.294487	946.546799
0.161000	725.090195	946.705734
0.162000	725.406929	944.316208
0.163000	724.931084	945.596298
0.164000	725.725792	945.278748
0.165000	725.407097	946.709564
0.166000	724.931587	945.270218
0.167000	723.341286	946.068283
0.168000	725.885071	945.910995
0.169000	725.249130	947.340515
0.170000	725.089012	946.541962
0.171000	724.296440	945.427628
0.172000	724.614830	946.547302
0.173000	723.977051	946.068283
0.174000	724.295448	946.549957
0.175000	725.089531	946.233932
0.176000	725.090858	946.545624
0.177000	723.657181	946.232407
0.178000	723.978569	946.390015
0.179000	724.615013	944.959015
0.180000	724.770966	946.065460
0.181000	723.818787	944.001511
0.182000	724.296616	946.864990
0.183000	724.136848	946.074677
0.184000	724.137344	945.907349
0.185000	725.568680	946.705917
0.186000	724.771790	946.227219
0.187000	723.658165	945.114777
0.188000	723.817619	945.432831
0.189000	723.659172	945.114273
0.190000	724.613838	944.954330
0.191000	724.613518	945.433685
0.192000	723.976921	945.112610
0.193000	725.407738	946.071289
0.194000	723.819450	945.434189
0.195000	724.771957	945.112610
0.196000	724.456535	945.907333
0.197000	723.977722	945.425125
0.198000	724.294624	944.956863
0.199000	725.409233	944.794403
0.200000	725.886253	945.435837
0.201000	724.137337	946.386337
0.202000	724.294807	945.271896
0.203000	723.819954	945.591110
0.204000	725.250450	945.425797
0.205000	723.819435	945.279266
0.206000	725.252129	945.910995
0.207000	723.184502	944.473129
0.208000	724.296112	945.109421
0.209000	725.250130	945.110947
0.210000	723.817139	944.793228
0.211000	724.295799	945.432358
0.212000	724.932236	944.796219
0.213000	724.295624	945.902802
0.214000	723.658501	944.314514
0.215000	723.819122	945.908173
0.216000	723.500389	944.635437
0.217000	723.501228	945.431015
0.218000	723.660355	944.481674
0.219000	724.615822	945.429504
0.220000	724.138985	945.904144
0.221000	724.137848	946.707581
0.222000	723.342262	945.113800
0.223000	723.819275	946.068604
0.224000	723.820770	945.437195
0.225000	723.980034	944.158279
0.226000	723.978233	945.748886
0.227000	723.501884	943.994476
0.228000	723.502716	945.111435
0.229000	722.865929	946.066620
0.230000	723.659836	945.116287
0.231000	722.548195	945.106079
0.232000	723.343117	945.591110
0.233000	723.025703	945.747238
0.234000	723.026695	945.906677
0.235000	722.706169	945.745529
0.236000	721.911919	946.545624
0.237000	723.979568	945.109253
0.238000	723.024048	945.594299
0.239000	722.707314	945.437347
0.240000	721.595695	946.387344
0.241000	723.343269	946.545120
0.242000	723.341621	946.071625
0.243000	722.072372	945.909348
0.244000	722.707657	946.227570
0.245000	722.388931	945.750717
0.246000	721.752632	945.750397
0.247000	722.389595	947.347397
0.248000	721.593864	946.390182
0.249000	722.389267	946.068115
0.250000	722.705818	946.547119
0.251000	723.499718	947.025787
0.252000	722.706154	946.702560
0.253000	723.026039	947.347214
0.254000	722.866096	947.350403
0.255000	722.548531	945.591797
0.256000	722.072533	947.185745
0.257000	723.023056	947.021454
0.258000	723.024208	945.913513
0.259000	722.229317	947.509995
0.260000	723.183479	946.391693
0.261000	723.343452	946.546799
0.262000	722.705666	945.909515
0.263000	723.819946	946.548309
0.264000	723.977905	946.545975
0.265000	723.183655	946.068466
0.266000	723.819427	947.025955
0.267000	724.137840	945.912994
0.268000	723.820435	945.594635
0.269000	722.707314	945.752060
0.270000	723.342285	945.586411
0.271000	723.182999	945.751907
0.272000	723.501717	946.709061
0.273000	724.297935	945.429504
0.274000	724.931915	945.590118
0.275000	724.613029	946.229065
0.276000	725.727959	947.027283
0.277000	727.158287	945.909500
0.278000	724.296440	945.753891
0.279000	724.614510	946.865021
0.280000	727.158806	945.909348
0.281000	726.206261	946.709244
0.282000	724.773277	944.793243
0.283000	726.680984	947.184570
0.284000	726.046516	945.271393
0.285000	726.523827	945.434021
0.286000	727.476852	946.866531
0.287000	724.933571	946.070129
0.288000	726.840240	946.550308
0.289000	726.681145	945.749374
0.290000	726.840263	944.791672
0.291000	725.888222	947.509674
0.292000	726.840569	945.907501
0.293000	728.113312	946.228745
0.294000	727.475700	945.750229
0.295000	726.682129	945.911514
0.296000	726.683281	946.233292
0.297000	727.636459	946.709076
0.298000	728.110970	946.549973
0.299000	727.318756	945.750061
0.300000	727.477364	945.433838
0.301000	727.000999	945.910355
0.302000	728.272903	946.868027
0.303000	726.682289	946.069641
0.304000	727.795570	946.393875
0.305000	727.479668	946.866852
0.306000	728.748589	946.071289
0.307000	726.842560	948.305740
0.308000	726.524361	944.484528
0.309000	727.794754	946.550140
0.310000	727.635330	945.590622
0.311000	727.001846	945.590973
0.312000	726.843719	945.284607
0.313000	727.956528	947.348083
0.314000	727.638298	945.275406
0.315000	727.001686	945.597168
0.316000	727.001686	945.756607
0.317000	726.842056	946.549957
0.318000	727.002014	945.912201
0.319000	726.523193	945.433197
0.320000	727.479340	946.237122
0.321000	726.206787	946.072647
0.322000	726.364243	946.389175
0.323000	728.273422	946.547806
0.324000	726.047005	946.554672
0.325000	726.365074	945.912338
0.326000	726.207108	945.915237
0.327000	726.525177	945.754730
0.328000	725.412888	945.756271
0.329000	726.526337	945.756287
0.330000	724.775124	946.876068
0.331000	726.048141	946.551331
0.332000	725.891541	946.392548
0.333000	724.936195	946.233124
0.334000	725.252777	946.071289
0.335000	725.413223	945.754593
0.336000	725.095490	944.637451
0.337000	724.776604	946.394058
0.338000	723.825073	946.236938
0.339000	724.617828	947.028351
0.340000	725.414368	947.351883
0.341000	723.187141	946.396912
0.342000	723.664948	945.756607
0.343000	723.505859	946.712128
0.344000	724.777420	947.031342
0.345000	722.074348	946.230087
0.346000	724.142784	945.438873
0.347000	723.505676	946.231918
0.348000	723.348373	946.388016
0.349000	724.140663	947.029831
0.350000	724.298752	945.752731
0.351000	723.980850	946.232422
0.352000	724.620117	946.236938
0.353000	724.618301	945.438385
0.354000	724.460205	946.554840
0.355000	723.029182	946.236786
0.356000	722.869247	946.710129
0.357000	722.871048	946.713959
0.358000	723.187286	946.712433
0.359000	722.392906	945.590637
0.360000	722.870552	947.031998
0.361000	723.346756	946.076508
0.362000	722.235275	945.115936
0.363000	721.759422	945.917221
0.364000	722.395554	946.713455
0.365000	721.439240	946.235611
0.366000	722.234772	946.710632
0.367000	722.868568	946.392715
0.368000	722.868744	947.031845
0.369000	721.915565	947.033859
0.370000	721.918373	945.915894
0.371000	722.075356	946.553329
0.372000	723.506989	946.232071
0.373000	723.505539	946.871704
0.374000	721.757271	947.189926
0.375000	723.984856	946.714447
0.376000	722.392723	946.713791
0.377000	722.551346	946.710602
0.378000	722.234947	946.707245
0.379000	723.506836	947.504150
0.380000	723.029167	947.349731
0.381000	722.711617	945.437363
0.382000	723.029350	945.117966
0.383000	723.982864	946.877716
0.384000	723.983498	947.828735
0.385000	722.870399	946.874741
0.386000	723.663811	947.027145
0.387000	723.347404	946.391190
0.388000	723.346581	947.190781
0.389000	722.713593	947.508514
0.390000	723.506508	946.233124
0.391000	722.550690	946.555176
0.392000	722.870392	947.505661
0.393000	723.665634	946.233109
0.394000	723.665642	946.082672
0.395000	724.142128	946.234772
0.396000	723.028015	947.187943
0.397000	723.504539	946.713638
0.398000	723.029678	947.671310
0.399000	723.186966	947.514008
0.400000	724.142319	946.556503
0.401000	723.982208	947.035004
0.402000	723.027847	946.073151
0.403000	724.140976	947.192627
0.404000	722.550697	946.871887
0.405000	722.870247	946.397064
0.406000	723.982697	947.194290
0.407000	724.300751	946.717453
0.408000	723.507851	946.237289
0.409000	723.666298	947.350235
0.410000	723.825089	945.441544
0.411000	723.188141	944.640778
0.412000	724.461029	946.870728
0.413000	723.981537	947.033005
0.414000	724.620300	946.393875
0.415000	724.618958	946.394409
0.416000	724.618973	946.236938
0.417000	722.870560	946.075180
0.418000	723.982376	945.438736
0.419000	723.507683	946.554337
0.420000	722.712135	946.556335
0.421000	723.984024	947.511520
0.422000	723.346558	945.123505
0.423000	722.870087	946.243454
0.424000	723.983856	947.038330
0.425000	724.301910	946.716614
0.426000	722.870911	946.239609
0.427000	723.822601	946.880096
0.428000	722.869583	945.281128
0.429000	723.506851	946.874252
0.430000	723.664474	946.870743
0.431000	724.300766	946.875748
0.432000	724.619141	946.877060
0.433000	722.550522	946.400070
0.434000	722.869415	946.079010
0.435000	722.711807	945.917374
0.436000	723.347412	946.395065
0.437000	723.346573	944.641953
0.438000	724.460693	945.760788
0.439000	723.981689	946.077164
0.440000	723.187637	947.834274
0.441000	722.235123	945.915375
0.442000	724.299927	946.714951
0.443000	723.822754	946.876053
0.444000	723.823914	946.237762
0.445000	723.826920	945.285446
0.446000	724.301407	945.441238
0.447000	724.141800	945.761108
0.448000	722.552185	945.282089
0.449000	723.507187	946.878723
0.450000	723.504364	946.559692
0.451000	724.620300	946.242630
0.452000	723.505188	945.444382
0.453000	723.981216	947.993393
0.454000	724.301590	946.075653
0.455000	724.777420	946.877075
0.456000	723.982193	946.401413
0.457000	724.143616	946.872391
0.458000	723.980698	945.917038
0.459000	723.984344	946.717957
0.460000	725.096146	946.870911
0.461000	724.938690	947.032852
0.462000	725.572479	945.923065
0.463000	724.140152	947.359589
0.464000	723.982697	946.878738
0.465000	724.935364	946.241608
0.466000	724.618332	946.077332
0.467000	724.458878	946.714279
0.468000	724.936203	946.552689
0.469000	723.664307	946.716797
0.470000	723.505539	946.878250
0.471000	725.253937	946.708755
0.472000	724.458221	945.918045
0.473000	723.983215	947.352417
0.474000	724.617981	946.723343
0.475000	724.777100	947.196442
0.476000	725.412552	946.401917
0.477000	724.776093	946.874252
0.478000	724.934235	947.191803
0.479000	724.936203	946.398239
0.480000	726.207260	946.397064
0.481000	723.983353	947.828415
0.482000	725.253250	946.401398
0.483000	726.208939	947.993713
0.484000	725.571991	946.399918
0.485000	726.207108	945.763779
0.486000	724.459045	946.082016
0.487000	725.093826	946.876068
0.488000	725.413727	946.556168
0.489000	726.525681	946.876724
0.490000	726.368546	947.200165
0.491000	726.046997	946.555847
0.492000	725.889038	946.557831
0.493000	726.207794	946.241104
0.494000	727.161453	944.956512
0.495000	726.364563	946.397064
0.496000	726.525009	946.872711
0.497000	727.161148	947.513199
0.498000	726.843048	946.553009
0.499000	726.524841	947.038330
0.500000	726.683960	946.557831
0.501000	726.684448	946.080841
0.502000	727.797577	946.719452
0.503000	726.843567	947.195480
0.504000	725.889221	946.074509
0.505000	727.957504	946.715302
0.506000	727.956696	947.677338
0.507000	727.001526	947.191803
0.508000	727.798233	947.831406
0.509000	726.525330	948.311798
0.510000	727.638138	946.561020
0.511000	727.479675	947.513504
0.512000	728.116791	947.035690
0.513000	726.526810	946.873566
0.514000	726.684799	947.352554
0.515000	727.480347	948.314453
0.516000	726.366226	947.671814
0.517000	726.526184	947.673645
0.518000	726.844391	945.445053
0.519000	726.526169	946.716797
0.520000	725.255264	948.314804
0.521000	726.686279	947.673965
0.522000	727.004013	946.558670
0.523000	726.050659	948.308258
0.524000	726.527496	947.839279
0.525000	725.095001	947.195145
0.526000	726.049164	947.516541
0.527000	724.778763	947.514709
0.528000	725.414383	946.880615
0.529000	725.414032	948.631348
0.530000	724.936707	947.675156
0.531000	725.573807	947.514709
0.532000	724.939011	947.832748
0.533000	724.300079	946.726334
0.534000	723.826080	947.993225
0.535000	725.414047	948.150803
0.536000	724.460861	948.951752
0.537000	724.302246	948.793289
0.538000	723.506691	947.991516
0.539000	723.825241	947.516052
0.540000	724.618820	946.883591
0.541000	723.983688	947.837463
0.542000	723.984207	946.563721
0.543000	723.346092	948.155014
0.544000	725.096634	946.565536
0.545000	724.142624	948.155518
0.546000	723.665138	947.203171
0.547000	723.347565	947.043716
0.548000	722.711624	947.839111
0.549000	723.506371	948.158356
0.550000	722.392563	944.968719
0.551000	721.756966	947.355743
0.552000	723.189964	947.198151
0.553000	722.551025	946.245819
0.554000	723.029854	947.516388
0.555000	723.824265	947.678833
0.556000	723.665985	947.519241
0.557000	723.505699	946.404770
0.558000	722.393074	947.517899
0.559000	723.824074	947.041901
0.560000	723.346092	946.089737
0.561000	724.460037	947.042374
0.562000	724.616829	945.612869
0.563000	722.869072	945.766647
0.564000	724.301750	947.356934
0.565000	723.665634	946.887939
0.566000	723.984016	947.043900
0.567000	724.777267	945.608902
0.568000	724.778595	946.247330
0.569000	724.618645	946.407623
0.570000	724.776283	945.131027
0.571000	725.256264	946.246674
0.572000	726.210434	945.290161
0.573000	725.253281	945.134369
0.574000	725.254440	946.086548
0.575000	725.571831	946.723663
0.576000	725.414375	945.768646
0.577000	725.731773	946.087555
0.578000	726.049820	946.248672
0.579000	726.049156	945.605515
0.580000	726.367378	945.769836
0.581000	725.889885	945.928772
0.582000	727.163445	944.175339
0.583000	726.684937	945.769653
0.584000	726.367233	946.085739
0.585000	725.096138	945.926941
0.586000	727.638626	945.772675
0.587000	725.733261	947.207382
0.588000	726.526352	946.890640
0.589000	727.004021	945.299362
0.590000	726.526337	946.726517
0.591000	725.891373	946.411987
0.592000	726.684952	946.091400
0.593000	726.210617	946.250000
0.594000	727.799210	945.773010
0.595000	727.164276	945.774490
0.596000	725.892380	946.729889
0.597000	726.687439	945.776367
0.598000	725.571487	946.091873
0.599000	726.209763	947.049591
0.600000	725.890884	946.092728
0.601000	726.527664	946.407776
0.602000	724.938377	946.251495
0.603000	725.256416	945.614059
0.604000	726.367218	945.456619
0.605000	725.415039	946.097778
0.606000	724.938370	947.367996
0.607000	725.415024	947.210709
0.608000	725.573830	947.367325
0.609000	725.415863	947.206345
0.610000	725.255096	947.209061
0.611000	725.415192	946.889633
0.612000	723.825233	945.935303
0.613000	724.141464	946.094101
0.614000	723.666794	946.414993
0.615000	724.779587	945.617081
0.616000	724.300751	946.894165
0.617000	723.824905	947.045059
0.618000	723.666306	947.369659
0.619000	724.461365	946.412140
0.620000	723.348579	946.413483
0.621000	722.235603	946.256546
0.622000	724.302078	946.092239
0.623000	724.142944	945.933609
0.624000	723.350891	947.048416
0.625000	724.143967	946.569717
0.626000	722.554810	946.575272
0.627000	723.826233	945.777878
0.628000	722.713608	946.568039
0.629000	722.714279	945.615219
0.630000	723.668106	945.615707
0.631000	723.032173	945.294815
0.632000	723.985672	946.412323
0.633000	723.985352	945.615891
0.634000	724.143799	946.256546
0.635000	722.872375	945.294159
0.636000	723.032005	945.131866
0.637000	723.510178	945.135391
0.638000	723.508194	946.570755
0.639000	722.713615	946.092545
0.640000	723.987183	946.245163
0.641000	724.621124	944.813980
0.642000	723.825737	946.089203
0.643000	723.509171	945.453278
0.644000	722.236786	944.814987
0.645000	725.255096	944.977600
0.646000	723.189796	946.251007
0.647000	724.302429	946.728683
0.648000	723.985527	944.178207
0.649000	724.144958	944.020264
0.650000	724.459869	943.540268
0.651000	724.303574	944.654877
0.652000	724.302734	944.655045
0.653000	724.781403	945.775864
0.654000	725.417038	944.817001
0.655000	725.256424	945.767990
0.656000	723.987656	944.816833
0.657000	725.575974	943.382813
0.658000	725.892197	944.338806
0.659000	725.256760	945.454437
0.660000	726.528152	944.176529
0.661000	725.893860	944.338654
0.662000	727.325195	944.341812
0.663000	725.418350	944.184387
0.664000	726.052460	945.451279
0.665000	726.370529	945.135056
0.666000	726.210922	944.814987
0.667000	727.641281	945.455963
0.668000	727.007477	945.457642
0.669000	724.938354	944.656036
0.670000	726.053619	946.577438
0.671000	726.209274	945.459320
0.672000	726.688919	943.857834
0.673000	727.004501	945.457153
0.674000	727.004501	946.570435
0.675000	726.369370	944.824692
0.676000	727.801224	945.614899
0.677000	726.848206	944.341492
0.678000	726.369858	945.932617
0.679000	727.165268	944.658890
0.680000	726.846039	946.097260
0.681000	726.689255	945.456284
0.682000	726.528137	944.021927
0.683000	725.575302	945.929611
0.684000	726.210587	945.462158
0.685000	727.803848	944.343002
0.686000	726.847198	945.301712
0.687000	727.642273	945.144592
0.688000	727.482666	944.502609
0.689000	727.166260	946.099930
0.690000	726.688095	944.819168
0.691000	726.371033	946.096771
0.692000	726.052307	946.100266
0.693000	727.166077	946.096924
0.694000	726.688080	945.939651
0.695000	726.530304	946.252380
0.696000	726.528320	945.620102
0.697000	725.735260	945.457809
0.698000	726.209259	945.772339
0.699000	725.732422	946.414139
0.700000	724.621140	946.252869
0.701000	726.368378	946.895325
0.702000	725.259415	945.139587
0.703000	724.940338	946.417145
0.704000	725.417679	947.052780
0.705000	725.257751	947.534149
0.706000	725.736252	946.572601
0.707000	725.736725	945.143265
0.708000	726.053467	947.208542
0.709000	725.419022	945.937836
0.710000	725.259064	947.531281
0.711000	724.622772	946.418320
0.712000	724.782578	947.689041
0.713000	724.939026	947.054443
0.714000	724.940338	947.211212
0.715000	724.304413	946.889313
0.716000	725.257416	946.891312
0.717000	724.782394	945.784225
0.718000	725.893860	946.735031
0.719000	724.304092	947.214874
0.720000	724.302429	947.371155
0.721000	725.894516	947.847519
0.722000	724.144791	947.844666
0.723000	724.784378	947.533432
0.724000	724.941666	948.328171
0.725000	724.463669	946.735031
0.726000	724.621780	947.691879
0.727000	724.304398	947.211884
0.728000	724.303574	947.846649
0.729000	725.577454	948.008606
0.730000	725.260895	948.167740
0.731000	724.463821	947.855698
0.732000	725.257584	947.851501
0.733000	724.463028	948.487610
0.734000	726.052963	948.323486
0.735000	726.373016	948.644562
0.736000	725.735580	949.763382
0.737000	726.528976	948.647751
0.738000	726.529465	946.728989
0.739000	726.690399	948.326996
0.740000	727.166428	948.326813
0.741000	727.004990	949.119064
0.742000	728.117264	948.325317
0.743000	727.005478	947.682678
0.744000	728.596939	948.638550
0.745000	729.231735	948.007599
0.746000	728.597595	948.804169
0.747000	728.596771	948.643570
0.748000	729.866989	946.887619
0.749000	728.756866	947.848328
0.750000	728.598251	948.646393
0.751000	729.551743	948.328171
0.752000	729.708893	948.008942
0.753000	728.913651	948.645035
0.754000	730.344177	947.368134
0.755000	729.868164	948.000900
0.756000	729.710861	948.963440
0.757000	730.185730	948.163055
0.758000	730.503952	948.007767
0.759000	731.298691	947.843155
0.760000	731.140228	947.848328
0.761000	731.777344	947.041550
0.762000	731.300674	948.476395
0.763000	731.458298	947.848648
0.764000	730.821701	948.161728
0.765000	731.458130	948.484436
0.766000	731.457962	947.047058
0.767000	730.981628	948.001053
0.768000	730.345337	947.525940
0.769000	730.663742	947.211044
0.770000	729.867981	946.722656
0.771000	730.662231	947.202499
0.772000	730.823318	946.884781
0.773000	731.457809	946.721176
0.774000	729.234360	947.364792
0.775000	729.710037	946.725662
0.776000	728.915329	947.518738
0.777000	728.597427	947.999725
0.778000	728.596756	947.043381
0.779000	728.598267	947.684708
0.780000	727.803192	946.884933
0.781000	727.803024	945.927765
0.782000	727.486618	945.764954
0.783000	726.689255	946.086212
0.784000	727.007950	947.199661
0.785000	726.849350	947.680176
0.786000	726.372833	945.771820
0.787000	726.530624	946.089539
0.788000	725.577957	946.248825
0.789000	725.579300	945.932266
0.790000	726.215073	946.407959
0.791000	725.101944	946.247147
0.792000	724.624435	945.771820
0.793000	724.624619	946.729004
0.794000	724.148102	945.933792
0.795000	724.307037	944.814819
0.796000	723.192932	946.883270
0.797000	724.465988	946.410614
0.798000	724.307526	945.613724
0.799000	723.512650	945.771652
0.800000	723.195084	945.447235
0.801000	723.829224	945.132385
0.802000	724.465988	945.612701
0.803000	723.351883	946.411987
0.804000	722.876373	946.728668
0.805000	723.034485	946.727829
0.806000	723.990295	945.933929
0.807000	723.194412	945.295990
0.808000	721.763062	945.933609
0.809000	724.147934	946.886444
0.810000	721.604950	945.774673
0.811000	723.831863	946.730209
0.812000	721.447327	947.044876
0.813000	722.242233	947.682846
0.814000	722.715591	946.413986
0.815000	722.716766	946.574768
0.816000	723.192917	946.092728
0.817000	722.558792	947.207535
0.818000	721.921036	947.686890
0.819000	722.399857	947.682678
0.820000	722.400696	948.002579
0.821000	723.194244	947.680847
0.822000	723.037949	947.533279
0.823000	722.715439	948.323334
0.824000	722.557632	947.689377
0.825000	723.352188	947.685715
0.826000	724.466324	947.361298
0.827000	723.671906	946.887466
0.828000	722.237579	948.964615
0.829000	722.875687	946.728516
0.830000	723.351883	948.964462
0.831000	723.509995	948.001938
0.832000	723.829041	947.682678
0.833000	723.351212	947.995895
0.834000	723.350037	947.844986
0.835000	722.079483	947.844345
0.836000	723.192764	949.121887
0.837000	722.396530	948.316788
0.838000	722.714111	949.436935
0.839000	723.666946	947.685715
0.840000	724.305069	947.845993
0.841000	724.623596	947.842133
0.842000	723.827225	949.438110
0.843000	723.828217	948.156342
0.844000	723.509140	948.163055
0.845000	723.192093	949.279495
0.846000	724.143280	947.999725
0.847000	724.621643	947.525604
0.848000	723.828049	949.909256
0.849000	723.828232	948.803665
0.850000	723.987488	947.045547
0.851000	723.667603	948.163528
0.852000	724.779068	948.476074
0.853000	723.668289	948.964767
0.854000	724.304382	947.524063
0.855000	723.985825	949.279007
0.856000	724.144608	948.322006
0.857000	723.507004	947.047058
0.858000	723.348740	946.725662
0.859000	723.667297	949.272797
0.860000	724.303589	948.636673
0.861000	723.507996	947.682663
0.862000	723.508148	948.161545
0.863000	724.144775	947.046890
0.864000	723.984009	948.797653
0.865000	724.459717	948.314117
0.866000	726.051804	945.771988
0.867000	726.052643	947.358276
0.868000	724.621307	946.247147
0.869000	725.096649	948.795959
0.870000	725.097321	948.320480
0.871000	726.051468	946.562042
0.872000	725.573990	946.880112
0.873000	725.894028	947.520386
0.874000	724.941666	946.565369
0.875000	726.688934	947.050247
0.876000	726.686768	946.086380
0.877000	726.528152	946.721481
0.878000	724.940826	946.085388
0.879000	726.528305	947.198013
0.880000	726.211594	946.723175
0.881000	726.052643	945.932770
0.882000	726.211090	946.881927
0.883000	726.053299	945.765930
0.884000	725.257736	945.770309
0.885000	725.895187	945.287109
0.886000	726.054306	946.244476
0.887000	725.417007	944.967072
0.888000	726.846878	946.563721
0.889000	725.895691	945.449951
0.890000	726.531296	946.881927
0.891000	727.324707	945.768661
0.892000	727.325363	945.603348
0.893000	726.688416	946.245804
0.894000	726.372040	946.403275
0.895000	725.578293	945.448227
0.896000	726.212067	945.605011
0.897000	725.894196	945.444214
0.898000	725.894043	946.714294
0.899000	725.257904	944.967880
0.900000	725.418350	945.294998
0.901000	726.372543	945.609879
0.902000	725.098450	945.129822
0.903000	725.894211	944.974106
0.904000	724.940521	946.563873
0.905000	725.417206	944.967224
0.906000	726.214417	947.041367
0.907000	724.621780	946.246155
0.908000	725.895035	946.881287
0.909000	726.212753	947.045380
0.910000	726.530472	945.287445
0.911000	725.417831	946.245483
0.912000	726.212570	946.724640
0.913000	725.896179	945.605164
0.914000	726.213074	946.400238
0.915000	724.147110	947.201981
0.916000	725.577469	946.399719
0.917000	725.099625	946.086716
0.918000	724.625595	947.202515
0.919000	725.894363	946.562225
0.920000	725.259247	946.409760
0.921000	723.351730	946.878403
0.922000	723.985352	946.563705
0.923000	723.828873	945.446228
0.924000	724.303406	946.407623
0.925000	724.782913	945.454269
0.926000	725.418503	946.407608
0.927000	725.258224	946.884933
0.928000	724.623764	945.287094
0.929000	723.350723	945.289642
0.930000	724.145798	946.881439
0.931000	724.941986	947.037369
0.932000	724.940506	946.087204
0.933000	726.053146	948.315445
0.934000	725.419006	946.242615
0.935000	724.623611	946.244476
0.936000	724.463684	946.724487
0.937000	724.781906	947.039368
0.938000	726.054626	947.038727
0.939000	723.827576	946.086868
0.940000	725.098465	946.720993
0.941000	725.577469	947.525253
0.942000	724.939697	946.403275
0.943000	725.258560	947.837616
0.944000	725.894043	945.929443
0.945000	723.667770	946.403091
0.946000	725.417679	946.721146
0.947000	725.733932	946.886612
0.948000	725.575790	946.078842
0.949000	726.212234	946.563370
0.950000	725.576309	946.405090
0.951000	725.577606	947.355911
0.952000	726.211411	947.522552
0.953000	726.372360	947.038879
0.954000	725.894012	946.085190
0.955000	725.575638	947.039871
0.956000	727.006500	947.035675
0.957000	726.212067	946.879608
0.958000	726.211426	945.765121
0.959000	727.006302	946.401733
0.960000	727.480835	947.360428
0.961000	727.165771	948.317947
0.962000	726.689087	947.043716
0.963000	725.894028	947.196442
0.964000	725.098480	947.365280
0.965000	726.687775	946.722641
0.966000	726.370529	947.039063
0.967000	726.688416	946.723999
0.968000	725.258408	947.203156
0.969000	726.688095	947.040726
0.970000	725.892044	947.513168
0.971000	727.959839	947.358292
0.972000	726.528503	947.353561
0.973000	725.414886	946.245834
0.974000	726.210938	946.563385
0.975000	726.528641	946.242126
0.976000	726.687119	947.999725
0.977000	726.369232	946.725998
0.978000	726.368546	947.035522
0.979000	724.619644	945.921219
0.980000	725.097794	946.401062
0.981000	725.732910	946.242294
0.982000	725.733597	946.244339
0.983000	725.256760	946.402405
0.984000	725.575150	946.401733
0.985000	724.304054	946.563889
0.986000	724.462852	947.034515
0.987000	723.984871	947.198654
0.988000	723.666969	947.201340
0.989000	724.620819	947.995056
0.990000	725.100311	947.518234
0.991000	723.507164	945.287598
0.992000	723.030838	947.037521
0.993000	722.712631	946.878571
0.994000	723.189125	947.196472
0.995000	723.667618	947.196793
0.996000	723.985504	947.516556
0.997000	723.348404	947.199829
0.998000	723.508659	947.198654
0.999000	723.348404	947.519714
1.000000	722.236626	946.562714
1.001000	723.032509	947.514023
1.002000	722.872887	947.511841
1.003000	722.394073	945.604004
1.004000	722.234787	946.242950
1.005000	721.918556	946.561523
1.006000	722.396545	947.041046
1.007000	723.188789	947.036835
1.008000	723.189949	947.196808
1.009000	723.032173	947.198837
1.010000	724.304390	946.402084
1.011000	723.825890	947.042542
1.012000	724.462509	946.879074
1.013000	723.824760	946.559006
1.014000	723.189781	948.627808
1.015000	723.826736	947.521561
1.016000	724.304237	947.677002
1.017000	723.509331	947.039566
1.018000	725.099281	946.239624
1.019000	723.030998	947.526779
1.020000	724.303406	946.401566
1.021000	723.030495	946.403275
1.022000	723.825577	946.561035
1.023000	724.303574	946.880432
1.024000	723.667282	947.515030
1.025000	724.143776	947.514694
1.026000	724.939026	946.880783
1.027000	726.051483	946.877258
1.028000	724.939842	946.562729
1.029000	725.258583	947.357788
1.030000	725.256905	946.720108
1.031000	724.779572	947.042908
1.032000	725.894539	947.679016
1.033000	726.527824	947.046219
1.034000	724.302574	947.995560
1.035000	724.462860	946.720627
1.036000	726.052299	946.882431
1.037000	724.779411	948.157516
1.038000	725.257576	948.152847
1.039000	725.891052	947.995056
1.040000	725.574654	946.882446
1.041000	726.053146	947.349243
1.042000	725.893356	946.556183
1.043000	727.322533	947.515182
1.044000	724.461533	947.354401
1.045000	727.006142	946.398224
1.046000	726.210747	946.085541
1.047000	727.322395	947.353088
1.048000	725.893196	946.080994
1.049000	727.322723	946.559494
1.050000	726.051292	947.031174
1.051000	726.527481	945.600494
1.052000	726.209763	946.877396
1.053000	726.686279	945.760620
1.054000	725.733086	946.075836
1.055000	726.686935	945.600662
1.056000	725.256081	945.913696
1.057000	726.209770	945.282608
1.058000	724.778587	946.716125
1.059000	725.572159	947.035187
1.060000	723.345909	945.443039
1.061000	725.571983	944.805603
1.062000	724.938538	945.760941
1.063000	725.254242	946.075180
1.064000	724.302910	945.285767
1.065000	725.097458	945.439728
1.066000	724.779915	945.438553
1.067000	725.255913	945.755936
1.068000	725.412376	944.485367
1.069000	725.891060	945.280594
1.070000	725.414711	944.326416
1.071000	725.893700	944.962723
1.072000	726.210419	945.443405
1.073000	725.256584	945.754074
1.074000	726.209938	946.239288
1.075000	726.529289	944.640961
1.076000	726.211266	945.280289
1.077000	724.778259	946.235794
1.078000	727.003983	946.078506
1.079000	725.415344	944.320724
1.080000	725.891029	944.964554
1.081000	725.254601	944.318558
1.082000	727.166252	944.964050
1.083000	727.163765	945.437729
1.084000	726.051964	944.318405
1.085000	727.801865	945.441055
1.086000	726.687759	944.964203
1.087000	727.325012	944.167496
1.088000	726.053307	946.873398
1.089000	727.167732	946.715103
1.090000	726.369545	945.751068
1.091000	726.687424	944.004669
1.092000	725.892700	945.762436
1.093000	726.529152	945.288773
1.094000	726.529488	945.119171
1.095000	727.323204	947.350739
1.096000	727.485954	945.436523
1.097000	726.053955	946.711792
1.098000	726.691216	945.436188
1.099000	726.214218	945.280777
1.100000	726.531303	945.443893
1.101000	725.735748	946.554016
1.102000	726.849342	947.353912
1.103000	725.261040	946.877243
1.104000	726.372856	945.280945
1.105000	725.735558	947.675507
1.106000	725.419006	947.993225
1.107000	726.849670	947.670959
1.108000	725.736244	946.879242
1.109000	726.691246	947.517883
1.110000	727.327034	946.399902
1.111000	727.168739	947.676666
1.112000	726.215736	947.991180
1.113000	726.214073	947.195297
1.114000	728.119438	947.678848
1.115000	726.373344	948.472733
1.116000	725.738716	947.993073
1.117000	726.056282	949.430237
1.118000	726.693062	949.747452
1.119000	725.578621	949.428909
1.120000	726.214394	948.793304
1.121000	726.054802	948.312790
1.122000	726.374352	948.791458
1.123000	725.101952	948.951904
1.124000	724.306389	947.678665
1.125000	725.580109	948.788300
1.126000	724.943001	949.114197
1.127000	725.578606	949.588516
1.128000	725.418694	949.268478
1.129000	726.056953	949.748459
1.130000	725.100609	950.223969
1.131000	725.261055	950.541702
1.132000	725.736389	950.230499
1.133000	726.054955	950.709351
1.134000	725.578445	949.434952
1.135000	726.057098	949.909424
1.136000	725.579117	950.388260
1.137000	725.895996	950.388443
1.138000	725.418175	949.426224
1.139000	724.941673	949.585022
1.140000	725.580116	950.386429
1.141000	725.259575	950.065506
1.142000	724.782051	949.425415
1.143000	724.942009	950.543701
1.144000	726.214256	950.224457
1.145000	724.782074	950.545029
1.146000	725.259895	950.068359
1.147000	725.577454	949.589676
1.148000	724.940857	948.791946
1.149000	724.942024	949.745789
1.150000	725.576645	950.385925
1.151000	725.099632	950.066528
1.152000	725.416702	950.710678
1.153000	726.211594	950.386414
1.154000	726.052658	950.225952
1.155000	725.100609	950.386093
1.156000	724.624779	950.386078
1.157000	724.942505	950.222794
1.158000	724.942001	949.742279
1.159000	724.622459	950.384918
1.160000	724.464348	949.111679
1.161000	725.417679	948.631332
1.162000	724.940529	950.540863
1.163000	724.623466	949.908585
1.164000	724.784897	950.222809
1.165000	724.305397	949.427582
1.166000	723.512314	948.630844
1.167000	724.465675	948.629333
1.168000	724.783386	949.584854
1.169000	724.148445	949.900024
1.170000	723.672585	950.064011
1.171000	723.512642	949.742798
1.172000	723.355515	950.220963
1.173000	721.924019	950.383224
1.174000	721.607117	949.259918
1.175000	721.767372	949.264099
1.176000	721.926147	950.539185
1.177000	721.768700	950.216248
1.178000	721.766380	949.101822
1.179000	721.291862	950.695099
1.180000	720.974480	948.305420
1.181000	720.495819	949.895187
1.182000	720.180893	949.258240
1.183000	719.703735	948.942871
1.184000	718.115265	949.575790
1.185000	719.070404	950.378571
1.186000	718.591743	950.216919
1.187000	718.594223	949.894196
1.188000	717.958092	949.728210
1.189000	716.845993	949.422867
1.190000	717.798813	948.931641
1.191000	715.733177	949.411804
1.192000	715.575905	949.413681
1.193000	717.007759	948.618790
1.194000	713.985619	949.098953
1.195000	714.783165	948.935135
1.196000	713.351662	948.297195
1.197000	712.716682	949.254425
1.198000	713.511078	949.415176
1.199000	711.285851	949.092239
1.200000	711.286171	948.936523
1.201000	709.697197	949.252533
1.202000	708.903297	949.257065
1.203000	708.583916	949.256241
1.204000	708.585411	948.617584
1.205000	706.836487	949.730209
1.206000	706.200554	948.776199
1.207000	705.564095	950.048264
1.208000	704.769188	950.208908
1.209000	704.453300	949.410812
1.210000	702.702248	949.572968
1.211000	701.909172	949.573105
1.212000	701.431015	949.731735
1.213000	700.159767	949.725540
1.214000	699.682755	948.455322
1.215000	698.250420	950.042084
1.216000	698.091499	948.932129
1.217000	696.661476	948.930969
1.218000	696.659805	948.133911
1.219000	694.116341	949.410965
1.220000	693.956245	949.883652
1.221000	693.638008	950.358810
1.222000	691.251343	949.084869
1.223000	690.455978	949.408310
1.224000	690.454124	949.402924
1.225000	688.546638	947.810822
1.226000	686.953682	949.724350
1.227000	685.999184	949.565399
1.228000	684.407738	949.713455
1.229000	684.407234	949.883469
1.230000	682.499062	949.721497
1.231000	681.384460	949.251038
1.232000	680.111732	949.404800
1.233000	678.677895	949.560379
1.234000	678.199249	949.403915
1.235000	677.244255	949.403427
1.236000	675.177139	949.716782
1.237000	672.948235	948.603821
1.238000	672.471573	950.038223
1.239000	670.243195	948.763977
1.240000	669.604088	949.881973
1.241000	668.966324	950.036362
1.242000	667.057808	949.239594
1.243000	666.103470	949.564240
1.244000	664.191307	949.400238
1.245000	663.397591	950.675644
1.246000	663.395096	949.556824
1.247000	659.102074	949.559708
1.248000	657.827171	950.839462
1.249000	655.920174	948.446594
1.250000	654.327408	949.718811
1.251000	653.054344	950.350204
1.252000	651.146645	948.599487
1.253000	649.715134	949.394379
1.254000	648.123695	948.128525
1.255000	645.897964	949.560715
1.256000	645.100899	949.239441
1.257000	642.238548	948.444397
1.258000	639.854530	947.963699
1.259000	637.784744	949.395874
1.260000	635.400558	950.348404
1.261000	632.380272	949.230087
1.262000	630.155685	950.507172
1.263000	627.610718	950.194611
1.264000	623.320175	950.190933
1.265000	620.933479	949.866699
1.266000	618.549301	948.757095
1.267000	616.164291	948.597672
1.268000	612.350899	949.233276
1.269000	608.852432	948.589951
1.270000	605.354942	947.801102
1.271000	600.586212	949.233429
1.272000	598.043755	948.907333
1.273000	593.750877	948.912216
1.274000	590.094772	948.434174
1.275000	584.851051	949.071640
1.276000	579.445717	948.273544
1.277000	576.265320	948.907852
1.278000	570.385307	948.109436
1.279000	564.979973	947.794540
1.280000	561.166580	949.066437
1.281000	555.444023	947.951996
1.282000	550.198143	947.951996
1.283000	544.475578	948.745056
1.284000	537.640419	948.427002
1.285000	532.237076	947.476837
1.286000	526.036507	948.107605
1.287000	520.155991	948.588272
1.288000	513.799969	947.312866
1.289000	507.760021	947.629562
1.290000	501.240929	947.313049
1.291000	494.722969	947.785492
1.292000	487.410290	946.676437
1.293000	479.939819	947.629578
1.294000	473.742252	946.193222
1.295000	465.952072	946.677750
1.296000	457.048267	945.557617
1.297000	448.942692	946.355164
1.298000	441.314426	946.352158
1.299000	434.955917	944.919327
1.300000	426.210743	945.239212
1.301000	420.330074	946.193542
1.302000	412.064541	943.164047
1.303000	404.592262	946.195068
1.304000	396.484684	945.396805
1.305000	390.287598	945.399490
1.306000	380.746536	944.597061
1.307000	373.117950	945.393448
1.308000	365.168823	943.485443
1.309000	356.267029	944.917984
1.310000	349.906357	943.322998
1.311000	340.686508	943.486633
1.312000	333.531792	943.965637
1.313000	325.740776	944.437775
1.314000	316.679359	943.803192
1.315000	309.525955	944.442154
1.316000	301.735296	945.080124
1.317000	296.012907	943.319504
1.318000	287.267889	945.083435
1.319000	280.112007	943.963837
1.320000	272.481110	944.606430
1.321000	265.802896	942.847000
1.322000	257.378260	943.486481
1.323000	250.857500	944.601593
1.324000	245.135941	944.760223
1.325000	239.411228	944.602936
1.326000	233.050253	944.124268
1.327000	225.421339	943.969986
1.328000	220.015181	944.922668
1.329000	214.609364	944.607788
1.330000	209.522594	943.810867
1.331000	203.001011	944.923660
1.332000	199.026200	943.329041
1.333000	193.144043	944.448486
1.334000	189.012273	944.128616
1.335000	184.399362	944.926712
1.336000	179.947058	944.451202
1.337000	174.065718	943.814911
1.338000	168.978455	945.403687
1.339000	165.482632	945.086823
1.340000	160.870549	943.016998
1.341000	157.370429	944.613632
1.342000	152.439950	944.447983
1.343000	149.102917	943.977707
1.344000	146.082277	945.562302
1.345000	142.426024	944.929520
1.346000	138.292105	945.092163
1.347000	135.907917	945.093491
1.348000	131.454777	943.335052
1.349000	127.798019	944.931213
1.350000	124.936992	944.771591
1.351000	121.121129	944.290604
1.352000	117.624480	944.296097
1.353000	115.397910	945.091675
1.354000	111.105045	943.335907
1.355000	109.197857	944.937424
1.356000	106.495111	945.092682
1.357000	105.381654	943.982574
1.358000	103.634737	944.620377
1.359000	101.725889	945.417267
1.360000	101.410315	944.936920
1.361000	99.342193	944.140366
1.362000	98.390668	945.256317
1.363000	96.163437	944.938568
1.364000	94.733087	945.418442
1.365000	93.302237	944.941910
1.366000	90.917388	944.790512
1.367000	90.282596	945.741028
1.368000	87.896910	945.744705
1.369000	87.419243	946.070801
1.370000	86.306953	944.948654
1.371000	84.718147	946.702408
1.372000	84.081704	946.384842
1.373000	81.536410	947.024979
1.374000	80.424283	946.545288
1.375000	79.310831	946.228577
1.376000	79.309835	947.188950
1.377000	77.878160	945.910187
1.378000	77.560767	947.344727
1.379000	75.969147	945.911850
1.380000	75.173590	947.351074
1.381000	72.785426	947.031342
1.382000	73.263748	948.468887
1.383000	73.420709	945.283783
1.384000	71.986883	946.560699
1.385000	68.962430	946.876740
1.386000	67.528939	947.832260
1.387000	67.846994	947.037231
1.388000	67.529264	945.124176
1.389000	66.570622	945.604004
1.390000	64.822878	944.653381
1.391000	63.550642	944.969742
1.392000	63.866382	945.126862
1.393000	63.230269	945.607224
1.394000	64.342724	944.171158
1.395000	61.955217	944.651520
1.396000	61.637164	944.010544
1.397000	61.635837	944.811661
1.398000	60.362447	943.700195
1.399000	61.315621	944.816650
1.400000	59.725996	943.541092
1.401000	58.770829	943.384827
1.402000	60.041573	942.262009
1.403000	60.041409	942.750717
1.404000	58.928615	942.430817
1.405000	61.472087	941.791214
1.406000	59.245850	941.953476
1.407000	59.565065	941.636276
1.408000	59.723019	941.793533
1.409000	59.725334	941.164291
1.410000	59.884613	942.280106
1.411000	60.679345	939.885361
1.412000	58.929445	940.053528
1.413000	59.884448	940.368073
1.414000	60.519404	937.820953
1.415000	59.882461	938.776123
1.416000	60.995248	938.938232
1.417000	60.996406	938.305649
1.418000	60.043560	938.940918
1.419000	59.723187	938.311172
1.420000	60.996905	938.309341
1.421000	60.995746	936.879654
1.422000	61.316620	936.407181
1.423000	62.269137	937.208420
1.424000	63.383912	937.845215
1.425000	61.159498	937.368896
1.426000	63.225797	936.887878
1.427000	64.181126	936.097183
1.428000	63.385071	936.737320
1.429000	64.022181	936.737823
1.430000	65.453686	934.989426
1.431000	64.659454	934.832474
1.432000	65.612136	934.992432
1.433000	65.136952	934.842529
1.434000	66.408855	934.359192
1.435000	67.520979	934.366867
1.436000	69.431313	933.734451
1.437000	68.157927	933.571808
1.438000	70.544929	933.420914
1.439000	70.387143	932.944901
1.440000	71.499435	933.267654
1.441000	71.341813	932.153381
1.442000	72.933756	932.154037
1.443000	74.046543	932.476776
1.444000	75.476562	931.841690
1.445000	76.593162	931.212082
1.446000	77.706113	930.412537
1.447000	78.500844	930.416199
1.448000	80.092291	931.217484
1.449000	80.889171	929.303268
1.450000	82.798843	929.785446
1.451000	84.708847	929.000793
1.452000	84.867959	928.358307
1.453000	86.776967	928.684204
1.454000	87.414242	927.411499
1.455000	89.166290	926.941040
1.456000	90.755418	926.300369
1.457000	92.188252	926.472031
1.458000	94.890834	925.191803
1.459000	96.641720	925.199142
1.460000	97.279001	922.337311
1.461000	100.937737	922.817169
1.462000	100.939065	920.432159
1.463000	103.485349	920.434830
1.464000	106.507311	919.162766
1.465000	108.577252	919.172150
1.466000	108.731894	916.149857
1.467000	111.117907	915.193680
1.468000	113.026419	914.560562
1.469000	115.728836	914.406311
1.470000	119.545362	910.584259
1.471000	120.978692	910.434372
1.472000	122.883228	908.204926
1.473000	125.109635	907.735809
1.474000	128.607610	905.514771
1.475000	130.833851	904.876633
1.476000	133.537424	903.293213
1.477000	136.398623	901.385361
1.478000	141.010045	897.882233
1.479000	143.554505	897.093185
1.480000	147.527501	895.026382
1.481000	149.118119	894.078262
1.482000	152.932661	892.805191
1.483000	155.952143	891.862381
1.484000	162.789972	890.114838
1.485000	165.332949	888.053406
1.486000	168.514355	884.869644
1.487000	171.851059	882.960800
1.488000	175.665768	881.377197
1.489000	179.640585	880.588669
1.490000	188.700022	878.364792
1.491000	195.376255	875.983459
1.492000	201.414722	876.308212
1.493000	203.799902	874.564651
1.494000	209.364010	873.615860
1.495000	215.721363	870.436615
1.496000	224.459595	867.576767
1.497000	234.631157	866.633316
1.498000	244.329853	866.637680
1.499000	247.345192	863.305008
1.500000	251.475807	862.040985
1.501000	261.012569	860.773453
1.502000	269.912571	859.350952
1.503000	277.859707	857.286209
1.504000	285.804855	855.384689
1.505000	289.937302	853.961395
1.506000	298.677673	852.221542
1.507000	306.306431	850.314865
1.508000	313.617287	846.978714
1.509000	320.610413	846.352646
1.510000	324.743839	842.535965
1.511000	333.324615	842.386353
1.512000	341.433678	839.530716
1.513000	347.315342	839.217041
1.514000	353.036903	836.044632
1.515000	358.600189	835.888550
1.516000	364.163963	832.235992
1.517000	371.319679	829.535431
1.518000	376.087387	827.470154
1.519000	381.493217	825.569504
1.520000	385.151451	823.028732
1.521000	390.876495	821.758011
1.522000	397.554550	819.537994
1.523000	401.848076	816.363083
1.524000	406.459328	813.503738
1.525000	412.662865	812.075424
1.526000	417.911552	806.980652
1.527000	422.524307	804.444550
1.528000	427.613556	803.174316
1.529000	430.793465	798.239655
1.530000	435.408691	794.578918
1.531000	441.929291	791.402512
1.532000	447.654655	788.696777
1.533000	451.791878	786.472702
1.534000	457.518257	780.103043
1.535000	461.176811	775.963593
1.536000	467.219246	771.342468
1.537000	474.216843	767.681061
1.538000	480.899872	763.702209
1.539000	487.417816	758.926865
1.540000	493.302284	754.622452
1.541000	501.251404	749.362839
1.542000	509.838470	744.587967
1.543000	519.222092	739.491348
1.544000	526.057426	733.910873
1.545000	536.074509	728.816086
1.546000	545.615562	722.756065
1.547000	556.108665	716.381699
1.548000	568.669197	711.122971
1.549000	585.524612	706.019127
1.550000	602.217087	699.957123
1.551000	618.750633	693.751747
1.552000	630.673737	686.571075
1.553000	644.346252	681.465744
1.554000	662.310287	674.925560
1.555000	682.658203	667.753296
1.556000	699.506836	660.737785
1.557000	714.609192	654.035461
1.558000	730.823502	646.379814
1.559000	749.420700	640.959122
1.560000	766.427444	632.350624
1.561000	783.593628	626.118782
1.562000	801.075867	619.421822
1.563000	819.036774	610.965759
1.564000	836.995880	603.629677
1.565000	854.638214	596.448692
1.566000	871.165665	587.516289
1.567000	889.759552	581.286133
1.568000	907.558884	572.989014
1.569000	926.152100	566.440292
1.570000	943.633850	557.988899
1.571000	961.111984	549.692780
1.572000	979.546890	539.794174
1.573000	995.913559	532.772781
1.574000	1010.056961	525.269554
1.575000	1025.947113	517.608566
1.576000	1040.727951	508.832771
1.577000	1055.348022	502.598915
1.578000	1068.220490	492.703476
1.579000	1080.777893	485.360863
1.580000	1095.398972	476.260986
1.581000	1103.980911	468.434845
1.582000	1115.425018	461.251167
1.583000	1127.506256	452.947365
1.584000	1136.882919	445.759514
1.585000	1146.422302	437.782276
1.586000	1154.849304	428.358154
1.587000	1164.710373	421.171986
1.588000	1172.976578	413.180534
1.589000	1180.771072	405.196953
1.590000	1189.200699	398.324978
1.591000	1197.472168	390.978683
1.592000	1204.313293	382.041435
1.593000	1212.900665	375.963013
1.594000	1221.015686	367.187546
1.595000	1229.128052	361.269249
1.596000	1237.082672	353.602386
1.597000	1245.195190	345.294380
1.598000	1255.850708	338.266819
1.599000	1265.553528	331.874519
1.600000	1274.939941	325.161327
1.601000	1286.707733	318.606075
1.602000	1298.952881	311.584370
1.603000	1311.836639	306.146427
1.604000	1323.921814	299.761158
1.605000	1339.823212	293.998631
1.606000	1353.021515	288.249146
1.607000	1370.033844	281.540813
1.608000	1385.935272	275.465237
1.609000	1401.037598	269.876045
1.610000	1418.370178	264.923141
1.611000	1434.904388	260.600143
1.612000	1451.755951	255.646732
1.613000	1470.200012	250.850090
1.614000	1487.053101	245.585648
1.615000	1505.335999	242.224030
1.616000	1522.503510	237.113682
1.617000	1539.357941	234.066944
1.618000	1555.889313	231.028736
1.619000	1574.648071	226.713444
1.620000	1590.704498	221.442314
1.621000	1608.352905	218.559536
1.622000	1624.088928	215.524513
1.623000	1640.464325	212.961300
1.624000	1657.151886	209.920597
1.625000	1672.731415	207.048023
1.626000	1689.103790	204.329384
1.627000	1706.273132	202.401955
1.628000	1720.580444	199.532234
1.629000	1736.636322	195.699978
1.630000	1750.623932	194.249390
1.631000	1765.565979	190.897644
1.632000	1780.825317	190.256004
1.633000	1795.293762	186.581352
1.634000	1807.373444	185.933849
1.635000	1821.680267	180.823174
1.636000	1834.236481	181.293980
1.637000	1846.000702	179.858948
1.638000	1858.878601	178.421078
1.639000	1869.849365	175.067829
1.640000	1883.681305	173.789566
1.641000	1892.742065	172.351025
1.642000	1903.076874	171.228039
1.643000	1914.683258	170.106718
1.644000	1923.270508	169.148024
1.645000	1932.969482	167.392927
1.646000	1943.306244	166.752131
1.647000	1952.050812	164.992014
1.648000	1961.113708	164.036331
1.649000	1970.023132	163.237083
1.650000	1980.201141	162.918861
1.651000	1988.470306	160.839182
1.652000	1998.488525	160.840689
1.653000	2007.557220	161.309324
1.654000	2015.510468	159.083418
1.655000	2024.418732	158.603237
1.656000	2032.052765	158.600222
1.657000	2040.324738	158.436094
1.658000	2047.961609	157.958246
1.659000	2057.028442	157.325144
1.660000	2064.822144	158.438101
1.661000	2072.777863	156.684341
1.662000	2082.323395	155.887939
1.663000	2088.052551	158.120371
1.664000	2096.798889	156.203831
1.665000	2105.232452	156.681168
1.666000	2111.598358	157.161013
1.667000	2118.756805	156.196455
1.668000	2125.914948	156.200979
1.669000	2132.597412	157.318789
1.670000	2138.168152	156.522552
1.671000	2143.896149	157.475376
1.672000	2148.827454	159.231981
1.673000	2154.079620	158.428886
1.674000	2157.740662	159.384899
1.675000	2162.194305	158.906717
1.676000	2165.381165	160.820427
1.677000	2168.247192	160.821089
1.678000	2172.224792	161.781458
1.679000	2176.204437	160.977020
1.680000	2178.748840	163.527510
1.681000	2180.344086	163.210796
1.682000	2186.230072	165.438204
1.683000	2187.030640	166.876402
1.684000	2190.052917	169.110342
1.685000	2192.441101	170.061995
1.686000	2195.623566	172.133142
1.687000	2198.487457	173.565989
1.688000	2200.399109	175.951002
1.689000	2202.470520	178.660601
1.690000	2204.220428	180.098303
1.691000	2207.083954	180.578154
1.692000	2207.724243	183.768600
1.693000	2209.474609	186.620415
1.694000	2210.270325	188.381525
1.695000	2210.752106	190.613121
1.696000	2212.820953	192.529997
1.697000	2212.820251	195.559000
1.698000	2212.824585	199.697760
1.699000	2213.463013	200.976189
1.700000	2215.375122	203.051512
1.701000	2215.057922	206.390039
1.702000	2212.993927	209.897192
1.703000	2212.041748	213.404703
1.704000	2212.524902	216.591303
1.705000	2211.731995	219.937532
1.706000	2208.554749	223.922377
1.707000	2208.555206	228.061802
1.708000	2207.444458	231.890713
1.709000	2205.539886	236.032494
1.710000	2203.474091	240.490993
1.711000	2200.458221	243.206959
1.712000	2198.392090	248.462521
1.713000	2196.490753	253.563496
1.714000	2192.676208	258.823414
1.715000	2189.339447	264.242443
1.716000	2185.368408	268.696594
1.717000	2180.918152	274.275414
1.718000	2176.630066	280.173107
1.719000	2172.816193	285.751583
1.720000	2166.620605	289.731579
1.721000	2159.786407	296.264900
1.722000	2154.383759	302.325565
1.723000	2147.708801	310.609295
1.724000	2141.513245	314.592793
1.725000	2134.837830	321.442669
1.726000	2127.210419	329.099316
1.727000	2120.853058	337.069679
1.728000	2113.384155	341.841888
1.729000	2105.278320	349.181480
1.730000	2097.967651	355.551834
1.731000	2088.430908	362.244602
1.732000	2080.008057	369.896557
1.733000	2073.017456	377.703453
1.734000	2062.684113	384.878407
1.735000	2054.260468	391.259472
1.736000	2045.199860	398.751831
1.737000	2035.504974	407.032387
1.738000	2026.444946	414.684341
1.739000	2018.021881	421.221832
1.740000	2008.800171	428.873131
1.741000	1999.108337	437.796501
1.742000	1990.523102	445.610420
1.743000	1980.033295	452.144073
1.744000	1970.177979	459.798882
1.745000	1960.959473	465.529610
1.746000	1951.421906	473.982651
1.747000	1939.818817	480.353523
1.748000	1932.028320	488.001793
1.749000	1921.856873	496.132256
1.750000	1912.793701	503.621437
1.751000	1902.780426	510.471481
1.752000	1890.857452	517.324860
1.753000	1881.318054	524.340553
1.754000	1869.874084	531.826187
1.755000	1859.381897	538.679573
1.756000	1848.253296	545.685715
1.757000	1837.127960	550.147720
1.758000	1826.156494	559.707710
1.759000	1816.617889	565.606415
1.760000	1804.855255	571.493912
1.761000	1794.202698	578.031067
1.762000	1782.757904	586.630844
1.763000	1772.421661	593.319099
1.764000	1760.498230	600.969238
1.765000	1750.325897	608.772255
1.766000	1741.104370	614.663597
1.767000	1729.658752	623.582596
1.768000	1719.167572	629.475952
1.769000	1708.353485	637.598053
1.770000	1697.227112	644.928452
1.771000	1686.892975	655.760986
1.772000	1675.446198	662.922554
1.773000	1665.588226	668.970146
1.774000	1657.479492	679.646759
1.775000	1644.922729	688.247704
1.776000	1634.588806	696.053757
1.777000	1625.207977	705.769135
1.778000	1615.351318	713.571854
1.779000	1605.175659	722.819458
1.780000	1593.092926	732.533348
1.781000	1584.668274	741.133972
1.782000	1575.129364	751.173111
1.783000	1565.111145	759.777542
1.784000	1554.459747	769.971802
1.785000	1545.874237	778.089035
1.786000	1536.015900	788.611221
1.787000	1525.998138	798.010574
1.788000	1516.302765	805.814468
1.789000	1505.331009	817.125336
1.790000	1496.743973	827.802429
1.791000	1487.204529	838.161133
1.792000	1479.891541	847.884399
1.793000	1470.510925	856.164429
1.794000	1462.082123	867.000839
1.795000	1450.951920	878.160141
1.796000	1443.320206	888.672089
1.797000	1437.436722	898.238281
1.798000	1427.740524	909.240799
1.799000	1420.901520	920.546127
1.800000	1412.633194	931.065979
1.801000	1406.910446	939.514679
1.802000	1399.118973	950.670959
1.803000	1392.600525	961.985321
1.804000	1385.125717	971.863541
1.805000	1380.833038	982.857025
1.806000	1373.996353	993.858902
1.807000	1368.429459	1004.695282
1.808000	1363.184891	1015.531998
1.809000	1357.301239	1027.484695
1.810000	1353.005432	1038.481537
1.811000	1347.284348	1051.873459
1.812000	1342.989960	1061.267593
1.813000	1337.105484	1074.500549
1.814000	1332.813293	1085.652466
1.815000	1327.406494	1097.286118
1.816000	1322.000153	1108.921249
1.817000	1318.184448	1120.236328
1.818000	1312.462067	1132.500671
1.819000	1308.483765	1142.866440
1.820000	1302.921829	1154.819611
1.821000	1297.673630	1166.449249
1.822000	1295.924927	1177.450928
1.823000	1290.836304	1189.397247
1.824000	1286.860031	1201.348785
1.825000	1284.793076	1211.072388
1.826000	1279.865387	1223.021393
1.827000	1277.161316	1234.177704
1.828000	1273.505585	1245.490906
1.829000	1270.802673	1256.643158
1.830000	1268.255066	1265.567566
1.831000	1265.711090	1277.682892
1.832000	1262.692276	1288.035889
1.833000	1260.783432	1299.032898
1.834000	1259.352585	1308.121704
1.835000	1256.650192	1318.470734
1.836000	1256.011581	1328.190979
1.837000	1251.561432	1338.705780
1.838000	1249.812210	1348.747650
1.839000	1247.744919	1359.099152
1.840000	1246.152634	1367.064636
1.841000	1244.086182	1377.425873
1.842000	1242.498047	1386.185425
1.843000	1242.021042	1394.469147
1.844000	1238.999939	1402.118439
1.845000	1236.296692	1411.842041
1.846000	1235.818359	1419.170227
1.847000	1235.341003	1426.811829
1.848000	1233.753189	1435.891754
1.849000	1234.388351	1440.982574
1.850000	1232.479660	1447.359924
1.851000	1231.368027	1455.002838
1.852000	1232.481171	1461.376404
1.853000	1229.778412	1468.226898
1.854000	1232.163116	1472.521790
1.855000	1231.527466	1478.419830
1.856000	1231.209442	1484.310822
1.857000	1231.685135	1489.885956
1.858000	1234.547592	1494.340088
1.859000	1232.322876	1499.915375
1.860000	1233.753723	1504.054840
1.861000	1233.436493	1511.055969
1.862000	1234.868530	1514.877319
1.863000	1235.979797	1520.450958
1.864000	1237.251709	1523.953094
1.865000	1237.411804	1529.525909
1.866000	1239.001617	1533.985352
1.867000	1240.115723	1538.277710
1.868000	1241.067917	1543.047729
1.869000	1242.817627	1545.117188
1.870000	1244.089401	1549.736633
1.871000	1244.249008	1554.347748
1.872000	1247.112030	1559.287079
1.873000	1247.748444	1562.949219
1.874000	1249.813751	1566.923309
1.875000	1250.452194	1572.177002
1.876000	1251.725403	1574.883759
1.877000	1255.064774	1581.416077
1.878000	1256.652908	1585.553711
1.879000	1259.831848	1589.697479
1.880000	1262.218140	1595.427032
1.881000	1262.855270	1600.202057
1.882000	1265.397720	1605.140930
1.883000	1268.420349	1611.517426
1.884000	1270.965363	1615.654907
1.885000	1272.713287	1622.346313
1.886000	1276.055267	1626.802826
1.887000	1277.484482	1632.068237
1.888000	1282.096558	1637.480774
1.889000	1285.116348	1643.699707
1.890000	1288.774445	1651.026764
1.891000	1290.683411	1655.965942
1.892000	1294.339050	1661.229370
1.893000	1297.359360	1666.964264
1.894000	1301.653381	1673.975403
1.895000	1303.404617	1679.866119
1.896000	1308.332245	1685.604889
1.897000	1310.876541	1691.501221
1.898000	1315.331848	1697.715179
1.899000	1318.035233	1704.087708
1.900000	1321.214859	1709.511444
1.901000	1325.507385	1715.725525
1.902000	1330.119629	1722.742859
1.903000	1333.458862	1729.593597
1.904000	1335.208038	1735.175415
1.905000	1339.185669	1741.391968
1.906000	1344.272949	1748.564941
1.907000	1346.025009	1753.667786
1.908000	1349.206085	1760.520477
1.909000	1351.748245	1767.219788
1.910000	1356.043106	1774.231781
1.911000	1359.222855	1780.122803
1.912000	1361.929077	1786.508087
1.913000	1364.155319	1793.999420
1.914000	1367.177277	1799.898285
1.915000	1370.198730	1807.552094
1.916000	1374.493408	1812.967133
1.917000	1376.244492	1820.306213
1.918000	1379.901566	1827.319733
1.919000	1383.402679	1833.378235
1.920000	1385.471313	1841.988708
1.921000	1388.015930	1846.612030
1.922000	1391.355286	1854.901428
1.923000	1394.536530	1861.913086
1.924000	1397.082642	1868.611908
1.925000	1399.628418	1875.301331
1.926000	1401.061447	1882.483124
1.927000	1405.196014	1888.857849
1.928000	1408.378586	1896.186615
1.929000	1410.128174	1902.402069
1.930000	1412.035645	1910.853058
1.931000	1416.172256	1918.029022
1.932000	1418.241669	1923.454407
1.933000	1419.991592	1931.097717
1.934000	1422.537552	1938.439148
1.935000	1424.924728	1945.447296
1.936000	1427.945160	1952.936768
1.937000	1429.697205	1959.956360
1.938000	1430.968094	1965.857056
1.939000	1433.356796	1973.673950
1.940000	1436.378082	1979.892761
1.941000	1437.493362	1986.750305
1.942000	1439.561676	1993.927765
1.943000	1439.566940	2001.898834
1.944000	1443.063263	2007.958832
1.945000	1441.633545	2014.663391
1.946000	1445.610214	2022.316254
1.947000	1446.248627	2028.536102
1.948000	1447.524506	2034.590881
1.949000	1448.159973	2041.934479
1.950000	1448.639633	2047.036316
1.951000	1448.639435	2052.305908
1.952000	1448.325531	2058.211670
1.953000	1447.690109	2062.987793
1.954000	1448.326202	2069.845795
1.955000	1446.578583	2074.159943
1.956000	1446.264877	2078.775055
1.957000	1443.086777	2084.520325
1.958000	1440.542465	2089.303925
1.959000	1439.113098	2092.812805
1.960000	1435.936508	2096.480377
1.961000	1432.121490	2099.661987
1.962000	1429.258789	2104.126984
1.963000	1425.285645	2108.916443
1.964000	1422.584717	2111.938080
1.965000	1417.021301	2116.405945
1.966000	1411.137802	2118.312622
1.967000	1404.779938	2124.367401
1.968000	1398.102722	2127.237335
1.969000	1389.835693	2131.060089
1.970000	1382.522705	2133.929047
1.971000	1374.097397	2136.152924
1.972000	1365.510483	2139.181061
1.973000	1355.814285	2143.317871
1.974000	1345.001816	2147.784058
1.975000	1334.827805	2148.891174
1.976000	1323.694305	2151.756165
1.977000	1310.497772	2155.104797
1.978000	1297.938202	2156.859192
1.979000	1285.536301	2160.206207
1.980000	1270.430771	2161.470551
1.981000	1256.441544	2162.737610
1.982000	1241.173767	2165.607849
1.983000	1226.230347	2167.835571
1.984000	1211.283310	2167.830414
1.985000	1195.379089	2169.103851
1.986000	1176.459198	2170.048950
1.987000	1157.220261	2169.418518
1.988000	1136.707108	2171.641541
1.989000	1117.308929	2171.639557
1.990000	1095.523178	2171.792603
1.991000	1074.533188	2171.954895
1.992000	1050.841614	2170.195007
1.993000	1026.511459	2171.783630
1.994000	1003.293091	2172.579498
1.995000	978.011902	2172.097961
1.996000	951.932297	2171.612793
1.997000	925.853378	2170.018311
1.998000	900.090721	2170.174286
1.999000	870.832565	2169.369659
2.000000	839.186394	2169.051605
2.001000	806.109550	2166.655823
2.002000	771.600876	2166.010345
2.003000	735.660683	2164.889526
2.004000	702.266777	2162.814392
2.005000	664.735130	2160.570892
2.006000	625.931587	2159.455078
2.007000	583.631248	2156.898590
2.008000	540.693787	2154.021851
2.009000	499.027893	2152.581757
2.010000	458.474789	2149.389618
2.011000	409.492573	2145.876953
2.012000	361.783916	2144.753784
2.013000	316.301815	2141.714294
2.014000	277.022278	2137.883820
2.015000	239.647432	2134.691254
2.016000	204.342690	2131.657532
2.017000	167.765714	2127.347260
2.018000	130.712226	2123.041199
2.019000	102.719826	2120.638916
2.020000	84.737217	2115.696930
2.021000	65.153391	2109.149536
2.022000	39.362043	2106.753235
2.023000	16.282233	2102.284180
2.024000	-3.466664	2098.773193
2.025000	-17.014020	2093.343048
2.026000	-19.741758	2088.081848
2.027000	-6.878864	2083.450195
2.028000	-3.695480	2079.464355
2.029000	-15.600059	2074.832275
2.030000	-17.646168	2068.927063
2.031000	0.664597	2063.987274
2.032000	15.314632	2059.345886
2.033000	22.802482	2053.768677
2.034000	22.488400	2047.863464
2.035000	19.142418	2042.436432
2.036000	7.837370	2037.494080
2.037000	-5.216743	2032.223358
2.038000	-13.976662	2026.007965
2.039000	-18.756143	2021.699310
2.040000	-14.778680	2015.638336
2.041000	-3.478443	2009.251282
2.042000	12.272772	2004.943787
2.043000	19.281310	2000.002625
2.044000	6.870942	1995.696716
2.045000	-3.306413	1990.748840
2.046000	-0.443719	1983.730499
2.047000	1.779702	1978.308075
2.048000	-3.150278	1973.682953
2.049000	-0.124833	1968.579285
2.050000	4.010411	1961.401306
2.051000	2.421780	1959.004089
2.052000	4.330294	1952.309418
2.053000	4.491884	1948.478516
2.054000	2.738182	1940.982666
2.055000	0.509790	1937.313324
2.056000	-0.287096	1932.210602
2.057000	0.826193	1927.423462
2.058000	-0.447694	1921.688049
2.059000	1.143586	1917.218475
2.060000	2.575926	1911.153961
2.061000	2.894809	1903.983307
2.062000	3.054584	1901.586121
2.063000	3.212870	1895.528473
2.064000	1.940472	1890.748352
2.065000	1.144416	1887.075745
2.066000	0.508633	1880.058380
2.067000	-0.286926	1874.482758
2.068000	-0.446864	1870.968872
2.069000	-0.444880	1866.187439
2.070000	0.987954	1860.443024
2.071000	1.783015	1856.935669
2.072000	1.943448	1851.514771
2.073000	0.989111	1848.005463
2.074000	1.465124	1844.337280
2.075000	0.353823	1837.482758
2.076000	0.986130	1833.807770
2.077000	1.146732	1828.392456
2.078000	1.463632	1824.240570
2.079000	-0.125002	1819.934875
2.080000	0.034277	1814.358215
2.081000	0.829337	1810.207184
2.082000	1.145907	1805.583618
2.083000	1.467272	1802.390167
2.084000	2.100411	1796.648041
2.085000	1.146733	1793.937592
2.086000	1.943121	1786.923737
2.087000	0.669729	1784.532257
2.088000	0.191402	1778.785339
2.089000	1.625061	1775.437378
2.090000	0.827018	1769.376312
2.091000	0.830826	1766.189209
2.092000	-0.124010	1761.880432
2.093000	0.511611	1758.368988
2.094000	0.831159	1754.072754
2.095000	0.669563	1751.523895
2.096000	0.671053	1747.053009
2.097000	0.352335	1744.652771
2.098000	1.147728	1740.035339
2.099000	0.352665	1737.160278
2.100000	1.148884	1732.854004
2.101000	0.669895	1731.576965
2.102000	0.510948	1728.393219
2.103000	0.830165	1724.562164
2.104000	1.306671	1723.603882
2.105000	1.309156	1719.144043
2.106000	0.194215	1716.593109
2.107000	1.784340	1715.470276
2.108000	0.034940	1710.530121
2.109000	-1.397066	1708.931946
2.110000	0.670392	1706.228333
2.111000	1.624067	1703.193176
2.112000	0.352167	1701.754303
2.113000	1.147396	1697.614868
2.114000	1.306341	1696.493896
2.115000	0.034443	1694.255280
2.116000	1.779867	1690.273102
2.117000	0.667575	1689.953491
2.118000	0.988779	1686.760712
2.119000	0.670888	1685.645905
2.120000	0.510284	1683.249512
2.121000	0.352002	1681.499268
2.122000	-0.760950	1679.422882
2.123000	2.259191	1677.193146
2.124000	0.829339	1677.349091
2.125000	0.670060	1675.756683
2.126000	1.466942	1673.680176
2.127000	0.828509	1672.563507
2.128000	1.466611	1671.764252
2.129000	0.035767	1669.851379
2.130000	1.306673	1669.208771
2.131000	0.988782	1667.135437
2.132000	0.829005	1665.703247
2.133000	0.669565	1664.741364
2.134000	0.829171	1663.146423
2.135000	0.510949	1663.149780
2.136000	0.670889	1661.076141
2.137000	1.466776	1660.122955
2.138000	1.305679	1660.596771
2.139000	0.036594	1658.046631
2.140000	1.624070	1657.402649
2.141000	0.511117	1656.764008
2.142000	0.668735	1657.721222
2.143000	0.352004	1656.760834
2.144000	0.193389	1656.284454
2.145000	0.511611	1656.123474
2.146000	0.668902	1655.317902
2.147000	1.784340	1656.116974
2.148000	1.304686	1656.117096
2.149000	2.420455	1656.276428
2.150000	1.147395	1656.749329
2.151000	0.988946	1657.393738
2.152000	0.670394	1656.751953
2.153000	-0.443391	1658.497955
2.154000	0.669067	1657.384399
2.155000	0.987125	1658.978180
2.156000	0.671384	1659.128204
2.157000	0.510949	1659.130066
2.158000	1.461977	1661.199646
2.159000	1.941629	1661.199524
2.160000	1.464957	1660.875916
2.161000	1.147728	1663.584839
2.162000	0.670393	1663.744141
2.163000	0.988450	1665.653137
2.164000	0.511941	1664.846832
2.165000	1.943615	1668.354187
2.166000	1.623736	1669.945648
2.167000	1.942293	1670.095215
2.168000	0.035600	1674.235779
2.169000	1.465453	1674.398773
2.170000	1.625394	1675.345734
2.171000	1.147394	1679.643585
2.172000	0.988613	1681.399323
2.173000	1.784010	1684.419952
2.174000	0.988286	1685.691681
2.175000	1.146732	1688.708313
2.176000	0.987956	1691.255219
2.177000	2.737519	1694.432800
2.178000	1.304355	1697.453400
2.179000	1.782350	1700.635498
2.180000	0.830498	1703.021698
2.181000	1.466277	1706.514648
2.182000	2.738015	1710.183868
2.183000	0.829009	1713.520905
2.184000	1.149052	1716.372711
2.185000	1.782187	1718.924164
2.186000	1.782519	1724.016876
2.187000	2.260182	1726.719482
2.188000	0.986795	1729.099426
2.189000	1.624234	1734.353363
2.190000	0.191568	1736.733643
2.191000	2.101568	1740.873749
2.192000	1.466114	1743.255554
2.193000	1.146898	1747.382614
2.194000	1.146731	1751.046387
2.195000	1.782185	1754.378494
2.196000	1.465784	1760.102188
2.197000	1.306342	1763.921570
2.198000	0.669233	1767.257233
2.199000	1.942457	1771.231308
2.200000	-0.285769	1773.923981
2.201000	-0.124338	1778.220840
2.202000	0.510784	1780.598999
2.203000	2.578407	1784.887314
2.204000	1.304851	1787.427887
2.205000	1.306341	1792.035965
2.206000	1.306177	1795.373108
2.207000	0.830329	1800.297714
2.208000	0.035270	1803.792480
2.209000	0.672046	1808.081192
2.210000	0.829999	1811.419678
2.211000	0.827847	1816.184662
2.212000	0.511278	1819.363388
2.213000	0.510616	1822.220337
2.214000	1.941301	1827.302078
2.215000	1.146733	1830.473404
2.216000	1.623736	1834.132141
2.217000	1.466279	1837.941849
2.218000	0.828842	1839.841309
2.219000	1.146898	1844.927155
2.220000	0.349850	1849.383484
2.221000	1.623735	1851.925903
2.222000	0.988118	1854.460342
2.223000	0.035103	1857.795380
2.224000	0.511776	1861.443222
2.225000	2.101734	1863.827179
2.226000	2.102729	1868.121338
2.227000	1.145079	1868.742538
2.228000	0.669397	1870.483429
2.229000	0.511114	1873.341919
2.230000	1.464957	1877.003998
2.231000	0.350183	1878.266190
2.232000	1.783842	1880.643860
2.233000	0.989112	1881.914185
2.234000	1.463134	1882.857666
2.235000	1.306011	1884.277130
2.236000	2.260018	1887.933167
2.237000	0.193387	1887.128403
2.238000	1.307333	1889.347107
2.239000	1.623901	1891.089111
2.240000	2.418137	1891.402969
2.241000	0.669397	1892.509369
2.242000	0.986961	1892.344879
2.243000	0.828013	1893.764038
2.244000	1.466113	1894.712494
2.245000	0.989113	1893.108612
2.246000	1.942954	1894.697891
2.247000	2.258858	1893.089859
2.248000	0.828841	1893.089340
2.249000	1.464957	1893.228027
2.250000	1.147891	1892.269638
2.251000	1.624399	1891.305618
2.252000	0.034441	1890.019318
2.253000	1.780697	1890.180740
2.254000	1.147726	1887.782166
2.255000	-0.283618	1886.658020
2.256000	0.033117	1884.584335
2.257000	1.464626	1883.617828
2.258000	0.988115	1879.307541
2.259000	1.146237	1877.551102
2.260000	1.465620	1874.353958
2.261000	1.147727	1872.280777
2.262000	0.033779	1867.648926
2.263000	0.828510	1864.779388
2.264000	0.670224	1859.190567
2.265000	1.149382	1854.565720
2.266000	1.463798	1849.305649
2.267000	0.034606	1844.839264
2.268000	1.145910	1839.743484
2.269000	1.940140	1833.196777
2.270000	0.193553	1826.501465
2.271000	0.668072	1819.329681
2.272000	-0.760954	1811.999817
2.273000	1.944277	1804.031998
2.274000	0.353658	1797.972824
2.275000	0.192890	1787.128708
2.276000	0.989607	1779.962280
2.277000	0.986628	1770.399109
2.278000	1.146402	1760.842316
2.279000	1.784999	1749.529831
2.280000	1.623405	1739.013123
2.281000	0.828343	1727.533920
2.282000	1.305680	1715.592026
2.283000	1.464790	1703.169830
2.284000	1.145574	1689.303787
2.285000	0.829005	1675.603363
2.286000	1.307001	1662.056580
2.287000	0.988945	1648.682419
2.288000	1.305681	1634.191132
2.289000	0.987622	1617.460541
2.290000	1.943285	1602.006241
2.291000	0.827351	1583.374374
2.292000	0.352331	1565.535828
2.293000	0.670391	1548.972595
2.294000	1.943779	1528.743896
2.295000	1.305349	1508.517181
2.296000	0.670061	1489.565033
2.297000	0.671384	1469.020638
2.298000	1.943946	1446.565262
2.299000	2.102396	1423.314346
2.300000	0.985800	1400.382126
2.301000	0.989109	1377.771454
2.302000	1.626552	1352.609741
2.303000	0.828014	1328.405556
2.304000	0.668073	1301.176399
2.305000	0.828180	1274.585907
2.306000	-0.282626	1245.762474
2.307000	0.987458	1217.415459
2.308000	-0.603993	1187.004250
2.309000	0.352666	1156.594872
2.310000	0.829334	1123.955063
2.311000	0.989277	1090.682861
2.312000	0.034442	1056.924591
2.313000	-0.442396	1021.896423
2.314000	0.987456	987.346260
2.315000	1.306671	950.728149
2.316000	-0.759956	913.002148
2.317000	0.511611	876.069977
2.318000	1.306504	837.856735
2.319000	0.033449	799.972263
2.320000	0.986793	760.650936
2.321000	1.146899	723.562531
2.322000	1.623903	682.173595
2.323000	0.033781	643.811775
2.324000	1.147396	601.471180
2.325000	1.465123	562.316322
2.326000	1.306010	521.246424
2.327000	2.100078	481.147463
2.328000	1.465619	440.088606
2.329000	1.464957	396.949427
2.330000	2.577248	355.412390
2.331000	1.305515	316.106123
2.332000	0.034773	276.956120
2.333000	0.669232	239.074492
2.334000	0.670227	202.948442
2.335000	1.306340	172.065576
2.336000	0.830495	146.121044
2.337000	1.783346	122.706581
2.338000	1.941299	100.425996
2.339000	1.624731	79.408614
2.340000	1.623241	60.778246
2.341000	1.464789	47.570757
2.342000	0.352169	32.918376
2.343000	1.464789	17.315835
2.344000	0.986958	5.375719
2.345000	2.258694	0.099218
2.346000	1.622744	-0.865821
2.347000	0.828508	-4.366123
2.348000	1.146733	-1.510135
2.349000	1.622248	0.889606
2.350000	2.259522	3.443108
2.351000	1.146569	3.761662
2.352000	0.986794	2.004397
2.353000	-0.126823	1.046382
2.354000	1.784007	-0.065575
2.355000	1.305515	1.043864
2.356000	0.830330	3.283152
2.357000	0.829502	4.077881
2.358000	2.418137	3.436249
2.359000	0.986463	1.845119
2.360000	1.305844	2.641521
2.361000	1.306672	2.959744
2.362000	1.781192	4.707468
2.363000	2.419957	2.481068
2.364000	0.829999	2.012762
2.365000	0.829831	2.963422
2.366000	1.465618	2.482244
2.367000	0.987788	2.156650
2.368000	0.988946	4.233811
2.369000	1.306836	1.364107
2.370000	0.988451	2.161006
2.371000	2.261013	3.118524
2.372000	2.100740	2.954393
2.373000	2.259356	2.002558
2.374000	1.784172	3.439430
2.375000	0.986793	1.523882
2.376000	2.100905	3.115178
2.377000	1.783677	1.369789
2.378000	0.671053	1.685842
2.379000	2.259520	2.164684
2.380000	1.305679	2.480902
2.381000	2.419958	1.200308
2.382000	0.830829	2.801643
2.383000	0.986130	1.040186
2.384000	0.990271	1.684169
2.385000	0.828012	2.477225
2.386000	1.626055	2.636336
2.387000	2.100906	2.323630
2.388000	2.102065	2.005075
2.389000	1.940471	1.043201
2.390000	0.830659	0.723802
2.391000	1.466943	1.517024
2.392000	0.986630	2.796789
2.393000	0.829174	1.677311
2.394000	2.099914	2.155821
2.395000	0.511942	1.198635
2.396000	1.462473	0.410101
2.397000	1.942460	1.519375
2.398000	0.513430	2.955901
2.399000	1.146237	1.838261
2.400000	0.191239	3.914594
2.401000	0.671219	1.836091
2.402000	2.259191	0.725144
2.403000	1.466117	1.836422
2.404000	0.671053	1.202147
2.405000	1.942625	2.162016
2.406000	1.623240	1.842618
2.407000	1.305350	2.480405
2.408000	0.192891	2.321460
2.409000	0.510121	1.198801
2.410000	1.306175	1.350044
2.411000	0.510948	1.356405
2.412000	1.146238	1.200308
2.413000	0.988117	3.109827
2.414000	1.624068	1.037850
2.415000	1.783346	1.194278
2.416000	1.464460	1.359254
2.417000	1.465290	2.799804
2.418000	1.306177	1.684004
2.419000	1.465288	1.841442
2.420000	1.941961	0.880744
2.421000	0.034276	2.319620
2.422000	0.194711	2.155987
2.423000	0.671386	1.358922
2.424000	1.144745	1.836257
2.425000	1.305513	0.880246
2.426000	0.988118	1.038016
2.427000	0.672214	0.239610
2.428000	1.781855	1.675472
2.429000	0.828841	1.358922
2.430000	0.670226	0.400229
2.431000	1.781193	1.039523
2.432000	1.307004	1.515019
2.433000	1.464459	1.037850
2.434000	1.940803	1.519873
2.435000	1.305679	1.198303
2.436000	1.941629	2.155158
2.437000	1.781856	2.472040
2.438000	1.941299	2.476893
2.439000	1.624234	0.241448
2.440000	1.781691	1.834252
2.441000	0.194711	1.836257
2.442000	1.306838	2.473713
2.443000	0.511280	2.783736
2.444000	1.305843	1.677311
2.445000	0.827352	2.152641
2.446000	0.352498	2.473878
2.447000	0.509956	1.196962
2.448000	1.464792	2.154479
2.449000	1.306010	2.473713
2.450000	1.940306	1.519872
2.451000	1.784835	1.678818
2.452000	0.986129	2.472040
2.453000	1.942789	2.955403
2.454000	1.149052	2.479063
2.455000	1.781858	1.358922
2.456000	1.622744	1.683340
2.457000	0.510451	3.107988
2.458000	0.827681	1.999725
2.459000	0.667743	3.109993
2.460000	2.259026	2.637512
2.461000	0.988283	1.677145
2.462000	0.987788	3.101627
2.463000	1.463469	3.273461
2.464000	1.306176	1.991690
2.465000	0.986297	1.361093
2.466000	0.989112	0.880412
2.467000	1.621916	2.473547
2.468000	0.511443	1.360595
2.469000	1.783346	0.874217
2.470000	2.259355	1.194957
2.471000	0.033451	1.834749
2.472000	1.464954	1.517205
2.473000	1.624731	1.995037
2.474000	1.462473	1.676979
2.475000	1.464129	1.195454
2.476000	0.829337	1.678984
2.477000	1.147396	1.198303
2.478000	1.463135	2.152475
2.479000	0.985305	0.880246
2.480000	0.512770	2.319289
2.481000	1.146899	1.367288
2.482000	1.782352	1.516692
2.483000	0.828178	1.199811
2.484000	0.352167	1.199811
2.485000	0.830166	1.194625
2.486000	-0.125992	1.995534
2.487000	0.829172	2.155821
2.488000	0.669565	1.045387
2.489000	0.670227	2.637843
2.490000	1.145739	0.878573
2.491000	0.512107	1.990017
2.492000	2.100409	2.949374
2.493000	0.828841	1.676482
2.494000	0.668903	0.712769
2.495000	0.827186	2.473713
2.496000	1.781855	1.677145
2.497000	2.260349	1.358591
2.498000	0.033281	2.317450
2.499000	0.671551	1.994705
2.500000	1.307003	0.721466
2.501000	0.985969	0.236098
2.502000	1.304522	1.834584
2.503000	0.828842	2.310079
2.504000	2.260513	2.630985
2.505000	1.304687	1.199811
2.506000	0.032621	1.036011
2.507000	0.827352	2.152143
2.508000	0.669728	1.678487
2.509000	-0.284940	2.637346
2.510000	0.829172	2.948711
2.511000	0.988119	2.154314
2.512000	0.668072	3.275134
2.513000	2.417475	1.045718
2.514000	0.986793	1.041362
2.515000	1.782354	1.678652
2.516000	1.306342	1.677311
2.517000	3.212040	1.840613
2.518000	0.828509	1.519873
2.519000	0.510784	1.673467
2.520000	1.148554	0.714608
2.521000	1.465785	2.630654
2.522000	1.623574	0.559506
2.523000	0.670226	1.357415
2.524000	0.034607	1.672292
2.525000	1.145904	1.675306
2.526000	1.147231	1.034670
2.527000	0.511612	1.512683
2.528000	-0.283948	1.991193
2.529000	1.147393	0.081674
2.530000	0.193387	1.672291
2.531000	1.306177	0.242956
2.532000	0.669562	3.430899
2.533000	0.034936	2.794785
2.534000	1.464294	0.719461
2.535000	0.351835	1.035846
2.536000	1.147228	2.155821
2.537000	1.940471	1.989686
2.538000	0.828345	1.989851
2.539000	2.260683	2.314601
2.540000	1.305184	0.720969
2.541000	1.465287	1.042870
2.542000	0.828842	0.878739
2.543000	1.464462	3.112345
2.544000	2.260186	0.880246
2.545000	2.102398	0.717954
2.546000	-0.600349	1.038861
2.547000	1.307998	2.630985
2.548000	0.827847	1.834418
2.549000	1.305018	0.875393
2.550000	1.146567	1.355410
2.551000	2.578240	0.555662
2.552000	0.827849	0.560350
2.553000	1.781526	1.678155
2.554000	2.578241	1.356073
2.555000	0.988287	1.829067
2.556000	0.829337	2.314104
2.557000	1.465619	1.672291
2.558000	-0.284940	1.036177
2.559000	0.669399	1.353903
2.560000	0.988286	1.198303
2.561000	0.828343	1.675141
2.562000	1.305845	0.873388
2.563000	0.510120	2.314270
2.564000	1.783014	0.716115
2.565000	0.987788	1.191942
2.566000	0.352830	1.037684
2.567000	0.513431	0.717623
2.568000	0.670888	0.875724
2.569000	1.305349	1.196630
2.570000	0.669399	-0.074091
2.571000	-0.124174	1.516029
2.572000	1.146237	0.405082
2.573000	1.147396	1.348884
2.574000	0.669731	0.876734
2.575000	1.306837	1.678487
2.576000	1.306010	1.510000
2.577000	1.624398	1.354234
2.578000	0.351506	0.878242
2.579000	0.352666	0.080498
2.580000	1.305183	1.516195
2.581000	0.830660	1.200655
2.582000	0.511115	2.788092
2.583000	0.987293	1.514190
2.584000	0.830826	1.194625
2.585000	0.512770	0.247975
2.586000	0.034444	0.721135
2.587000	0.351672	1.988013
2.588000	-0.284112	1.991525
2.589000	0.671053	1.198303
2.590000	0.035931	1.835594
2.591000	0.194381	1.352561
2.592000	0.830001	0.717623
2.593000	-0.443225	-0.236383
2.594000	1.306341	1.042372
2.595000	0.669067	0.397727
2.596000	0.987783	-0.395329
2.597000	0.352005	1.195123
2.598000	0.829172	1.831237
2.599000	0.829667	-0.078779
2.600000	1.147726	2.463840
2.601000	0.986794	1.511010
2.602000	0.191236	1.034173
2.603000	0.987622	-0.396836
2.604000	0.829008	0.714111
2.605000	0.828675	0.878076
2.606000	0.829833	0.239610
2.607000	1.306176	1.829233
2.608000	0.670720	0.874895
2.609000	0.353658	0.555496
2.610000	0.829503	1.353737
2.611000	1.465453	0.555994
2.612000	0.671219	1.671960
2.613000	1.306175	0.877066
2.614000	1.781360	0.240620
2.615000	1.784007	1.988675
2.616000	0.510123	1.194294
2.617000	1.147564	1.198138
2.618000	0.512108	1.194957
2.619000	0.669897	1.515863
2.620000	1.146733	1.829398
2.621000	0.350347	0.559506
2.622000	0.669896	0.878573
2.623000	-0.283780	1.199811
2.624000	1.148055	1.201152
2.625000	1.465454	0.080001
2.626000	1.783514	1.039358
2.627000	2.102729	1.514853
2.628000	63.879938	0.716281
2.629000	138.717523	1.350557
2.630000	289.902692	1.029650
2.631000	333.860898	1.511175
2.632000	309.864259	0.560350
2.633000	387.604968	-0.235886
2.634000	583.869287	0.557335
2.635000	705.125141	1.358425
2.636000	553.711956	1.353571
2.637000	325.356504	-0.719416
2.638000	217.670800	-1.032106
2.639000	285.352853	1.506653
2.640000	338.272834	1.519872
2.641000	335.228813	3.592859
2.642000	373.956207	1.350557
2.643000	648.252235	0.882929
2.644000	950.036865	-0.080286
2.645000	1012.241348	-0.406046
2.646000	949.997559	1.517039
2.647000	901.918854	0.077152
2.648000	984.008209	-0.719416
2.649000	1027.393921	-0.392480
2.650000	1030.407639	-0.404042
2.651000	1034.869797	0.081508
2.652000	1189.267838	2.631995
2.653000	1428.125504	0.707915
2.654000	1692.481110	-0.397333
2.655000	1914.011734	-0.082125
2.656000	2187.173096	1.824213
2.657000	2493.257782	3.747962
2.658000	2736.731506	1.188596
2.659000	2803.266510	-1.353857
2.660000	2786.275848	-2.952674
2.661000	2874.718506	-0.239729
2.662000	3050.296387	2.311602
2.663000	3101.747009	1.665102
2.664000	2957.463196	-1.840898
2.665000	2788.867126	-1.035287
2.666000	2724.593170	2.624458
2.667000	2701.304749	4.544529
2.668000	2593.603851	5.659320
2.669000	2418.966858	4.215920
2.670000	2275.803848	4.546202
2.671000	2200.392029	4.706142
2.672000	2117.969711	4.543353
2.673000	1984.650986	5.023868
2.674000	1839.899063	2.311255
2.675000	1749.185532	1.356918
2.676000	1703.616776	1.519209
2.677000	1653.285828	1.989520
2.678000	1588.143921	2.153817
2.679000	1521.417053	2.471377
2.680000	1463.111542	2.468527
2.681000	1397.793457	2.476562
2.682000	1323.421295	1.835759
2.683000	1251.750153	2.791770
2.684000	1198.187286	4.549880
2.685000	1160.694046	3.902717
2.686000	1124.467041	0.083347
2.687000	1081.387939	-0.559294
2.688000	1050.083984	-0.880200
2.689000	1031.325363	-0.401690
2.690000	1024.009552	-1.673919
2.691000	1018.610046	-1.680114
2.692000	1003.341278	-1.841064
2.693000	982.826767	-2.480193
2.694000	965.657990	-1.989127
2.695000	956.268570	-2.315218
2.696000	952.921112	-0.880200
2.697000	951.487442	-2.794738
2.698000	949.725830	-2.947489
2.699000	952.895340	-2.312882
2.700000	964.803757	-1.203608
2.701000	987.671005	-1.195077
2.702000	1010.540756	-1.672743
2.703000	1028.323380	-0.085803
2.704000	1043.713379	-0.403694
2.705000	1070.866882	0.554486
2.706000	1111.364075	-0.400348
2.707000	1156.153824	1.512683
2.708000	1194.429230	1.989686
2.709000	1226.976135	2.634679
2.710000	1263.652664	1.038695
2.711000	1314.323395	3.264929
2.712000	1363.879333	1.199313
2.713000	1409.462784	1.674809
2.714000	1445.663330	2.151978
2.715000	1485.516907	2.630488
2.716000	1529.196320	3.102637
2.717000	1568.273376	3.582323
2.718000	1591.766296	2.629146
2.719000	1608.429443	3.107159
2.720000	1632.253510	2.789268
2.721000	1659.735229	2.789268
2.722000	1688.497925	2.471542
2.723000	1705.023315	1.360264
2.724000	1710.735565	1.671794
2.725000	1721.704681	0.397892
2.726000	1739.827942	1.358259
2.727000	1759.068420	1.353571
2.728000	1769.412445	0.714277
2.729000	1775.625580	0.237440
2.730000	1784.225647	0.078494
2.731000	1798.724823	0.237605
2.732000	1812.100128	1.352064
2.733000	1815.623352	0.235766
2.734000	1811.998016	1.351898
2.735000	1808.688782	0.082006
2.736000	1817.783447	1.830906
2.737000	1827.196777	0.873388
2.738000	1826.110413	0.399731
2.739000	1818.985413	0.238284
2.740000	1812.969635	1.669955
2.741000	1816.174164	0.557170
2.742000	1816.196167	-0.720078
2.743000	1809.854218	-0.727102
2.744000	1802.240601	-0.087144
2.745000	1797.805359	0.076158
2.746000	1794.159851	-0.403529
2.747000	1788.605621	-0.882039
2.748000	1776.688171	0.553658
2.749000	1765.087891	0.396054
2.750000	1755.870972	1.516195
2.751000	1747.925507	1.676316
2.752000	1736.003754	1.032499
2.753000	1721.375519	1.032002
2.754000	1708.658875	1.833589
2.755000	1696.415771	1.992535
2.756000	1682.422394	2.948214
2.757000	1667.475983	2.307411
2.758000	1652.690491	2.791604
2.759000	1637.741852	3.265095
2.760000	1624.066345	2.309250
2.761000	1610.234253	4.066350
2.762000	1595.604950	1.989851
2.763000	1582.247375	0.876403
2.764000	1569.525696	2.632327
2.765000	1557.125275	2.948379
2.766000	1544.720032	2.307411
2.767000	1534.065186	2.469703
2.768000	1522.298767	0.393536
2.769000	1509.101929	1.348883
2.770000	1498.606323	-0.238222
2.771000	1486.999634	0.554834
2.772000	1475.074524	-0.562640
2.773000	1463.626801	0.393039
2.774000	1454.880127	0.868369
2.775000	1444.864838	0.080001
2.776000	1435.483398	-0.084296
2.777000	1428.805695	-0.556113
2.778000	1423.239777	-0.402187
2.779000	1419.742432	-0.241402
2.780000	1418.311768	1.512848
2.781000	1416.881104	1.035348
2.782000	1416.085510	-1.036297
2.783000	1417.991882	0.876237
2.784000	1418.150787	0.237605
2.785000	1424.508026	0.717457
2.786000	1425.935394	0.553823
2.787000	1431.496307	0.722145
2.788000	1435.148743	0.240951
2.789000	1441.984741	0.077996
2.790000	1447.705994	-0.559128
2.791000	1455.491516	0.237771
2.792000	1463.119965	0.234425
2.793000	1470.268524	1.510181
2.794000	1480.282806	-0.080618
2.795000	1489.342560	-0.080949
2.796000	1499.831329	-0.880532
2.797000	1510.479401	0.395888
2.798000	1519.379883	1.194625
2.799000	1530.824005	1.028987
2.800000	1538.291626	1.191279
2.801000	1549.737427	1.037021
2.802000	1556.729401	-0.241568
2.803000	1564.676514	0.237440
2.804000	1572.463257	1.191445
2.805000	1580.412018	1.032499
2.806000	1586.768799	1.194957
2.807000	1593.126678	1.508674
2.808000	1596.943512	1.195636
2.809000	1602.668427	0.555331
2.810000	1606.324677	1.356420
2.811000	1609.346893	0.712272
2.812000	1613.007477	0.558511
2.813000	1614.279755	1.989851
2.814000	1614.758514	1.193118
2.815000	1616.351776	1.673136
2.816000	1615.879120	1.512186
2.817000	1616.678101	1.351733
2.818000	1613.975525	0.232254
2.819000	1613.822083	1.512185
2.820000	1611.280396	1.669955
2.821000	1608.737915	1.355079
2.822000	1606.992126	-0.716732
2.823000	1606.201538	0.873554
2.824000	1603.498108	0.717788
2.825000	1602.545471	0.237440
2.826000	1600.160431	1.035680
2.827000	1600.002472	1.192787
2.828000	1597.457336	-0.715225
2.829000	1597.613770	1.197640
2.830000	1597.772491	1.353406
2.831000	1596.499908	0.399731
2.832000	1600.471222	0.232586
2.833000	1600.627533	1.509171
2.834000	1601.896088	0.079504
2.835000	1604.276154	0.237440
2.836000	1607.291809	0.868203
2.837000	1610.784485	0.391531
2.838000	1614.597198	1.347210
2.839000	1619.518127	0.555331
2.840000	1624.283875	0.555165
2.841000	1630.955109	0.076489
2.842000	1635.878296	1.669790
2.843000	1644.297974	1.666609
2.844000	1652.083832	0.720803
2.845000	1660.187927	0.876237
2.846000	1667.333740	1.351567
2.847000	1677.342834	1.514190
2.848000	1685.127380	0.872228
2.849000	1694.819794	3.107325
2.850000	1704.831635	-0.077603
2.851000	1713.729248	1.185597
2.852000	1723.262390	1.517536
2.853000	1734.706177	1.035846
2.854000	1743.763763	1.032002
2.855000	1753.139221	1.187436
2.856000	1762.516754	0.875227
2.857000	1770.779144	1.350225
2.858000	1779.361572	1.351567
2.859000	1786.991333	0.242127
2.860000	1795.414124	0.874730
2.861000	1803.204132	1.351567
2.862000	1808.287933	1.667951
2.863000	1815.124420	1.513014
2.864000	1819.892792	1.512185
2.865000	1824.024902	2.470879
2.866000	1828.159973	2.784083
2.867000	1831.656982	2.306401
2.868000	1834.363220	1.507498
2.869000	1836.746857	3.096623
2.870000	1836.749451	64.010174
2.871000	1838.340927	125.708988
2.872000	1837.388077	135.492128
2.873000	1836.754150	86.169119
2.874000	1836.123642	186.291017
2.875000	1834.849564	314.033954
2.876000	1832.944702	383.997791
2.877000	1831.199081	372.152233
2.878000	1828.342545	349.137892
2.879000	1826.116547	389.377790
2.880000	1823.895630	518.133049
2.881000	1821.192627	620.783649
2.882000	1817.854050	639.215843
2.883000	1814.519012	679.473335
2.884000	1811.496048	801.200089
2.885000	1807.208115	978.321350
2.886000	1803.234467	1136.938522
2.887000	1799.897598	1264.462967
2.888000	1795.130173	1419.509064
2.889000	1792.109924	1649.832550
2.890000	1785.434509	1857.620239
2.891000	1782.097122	1953.347046
2.892000	1779.871506	1892.031128
2.893000	1775.577316	1734.335785
2.894000	1772.082184	1545.743378
2.895000	1769.378464	1358.716995
2.896000	1769.061707	1166.538666
2.897000	1767.950241	1009.317993
2.898000	1765.724487	902.594864
2.899000	1763.498917	846.156403
2.900000	1760.478500	809.672806
2.901000	1759.685196	781.176300
2.902000	1759.049438	768.330231
2.903000	1757.461441	795.554199
2.904000	1753.804214	848.814590
2.905000	1752.692902	914.515732
2.906000	1751.581268	970.115967
2.907000	1751.899460	1024.031601
2.908000	1749.673752	1080.793854
2.909000	1746.017670	1135.607697
2.910000	1745.542984	1166.240051
2.911000	1746.499786	1173.562714
2.912000	1745.227600	1175.767670
2.913000	1744.116272	1189.158752
2.914000	1742.369370	1221.171509
2.915000	1741.573929	1258.433228
2.916000	1738.237457	1298.272583
2.917000	1737.920166	1348.286957
2.918000	1732.672485	1409.301025
2.919000	1728.860077	1470.970795
2.920000	1725.521866	1526.725922
2.921000	1721.550415	1574.365295
2.922000	1716.464615	1612.277863
2.923000	1712.171768	1646.518188
2.924000	1708.515152	1673.446198
2.925000	1702.794266	1702.123047
2.926000	1698.187485	1733.983429
2.927000	1692.940598	1772.389282
2.928000	1689.922287	1816.216217
2.929000	1683.405472	1863.235535
2.930000	1678.954514	1908.505493
2.931000	1672.597778	1954.407776
2.932000	1664.966721	2003.659393
2.933000	1660.359253	2051.957031
2.934000	1653.363327	2100.890594
2.935000	1646.845871	2149.035431
2.936000	1638.737976	2196.063416
2.937000	1633.176529	2255.374878
2.938000	1626.022095	2312.160950
2.939000	1618.712723	2362.087708
2.940000	1611.557693	2407.232422
2.941000	1604.088898	2461.176331
2.942000	1596.297363	2524.991394
2.943000	1588.826935	2589.934448
2.944000	1580.722000	2655.373779
2.945000	1574.363495	2718.251709
2.946000	1566.257050	2780.342957
2.947000	1557.195969	2858.653442
2.948000	1549.249359	3040.383911
2.949000	1540.347382	3268.916443
2.950000	1533.669800	3393.584045
2.951000	1524.451767	3423.950806
2.952000	1517.299484	3522.140381
2.953000	1507.604645	3699.089844
2.954000	1501.085541	3840.431152
2.955000	1492.185883	3900.847473
2.956000	1485.669403	3938.794678
2.957000	1477.563828	3981.046143
2.958000	1470.253647	4008.707947
2.959000	1463.577393	4001.021118
2.960000	1456.582458	3966.943420
2.961000	1448.159149	3918.302246
2.962000	1442.278320	3859.132385
2.963000	1436.080200	3793.359314
2.964000	1430.518753	3721.660889
2.965000	1423.683365	3641.197266
2.966000	1418.120789	3556.702454
2.967000	1410.651321	3467.583252
2.968000	1403.977707	3374.336182
2.969000	1397.302658	3279.784363
2.970000	1391.420990	3183.336975
2.971000	1385.224411	3089.768005
2.972000	1377.753098	3006.224060
2.973000	1370.283264	2936.082764
2.974000	1363.768814	2890.325439
2.975000	1356.457809	2852.422913
2.976000	1351.529953	2791.784485
2.977000	1343.264587	2716.312378
2.978000	1334.522217	2661.078186
2.979000	1329.755203	2632.018372
2.980000	1324.354309	2602.309265
2.981000	1318.314041	2548.219299
2.982000	1311.478546	2485.385010
2.983000	1304.487869	2430.671021
2.984000	1298.605728	2390.626160
2.985000	1291.612717	2349.476196
2.986000	1286.050293	2302.586029
2.987000	1279.371582	2252.184723
2.988000	1273.653320	2209.604584
2.989000	1265.547409	2172.594421
2.990000	1258.870834	2136.392029
2.991000	1254.104401	2098.272858
2.992000	1246.156006	2060.637573
2.993000	1241.069046	2026.979675
2.994000	1233.756866	1996.038727
2.995000	1227.556778	1971.159698
2.996000	1221.041199	1948.187073
2.997000	1215.160492	1923.779724
2.998000	1209.756653	1901.603180
2.999000	1201.492920	1880.390137
3.000000	1197.835876	1857.587311
3.001000	1191.796280	1837.326477
3.002000	1185.914276	1817.234467
3.003000	1181.942215	1800.644226
3.004000	1175.105576	1781.981354
3.005000	1168.746902	1764.604950
3.006000	1164.772949	1747.057220
3.007000	1159.369064	1728.883423
3.008000	1153.331619	1712.622101
3.009000	1148.401138	1697.315521
3.010000	1143.156754	1681.533905
3.011000	1137.593597	1667.497711
3.012000	1134.570709	1653.791931
3.013000	1128.534760	1640.087830
3.014000	1122.652237	1627.326904
3.015000	1117.087952	1615.375519
3.016000	1112.797546	1603.423676
3.017000	1108.823746	1592.104919
3.018000	1103.420410	1580.633606
3.019000	1096.424316	1570.905304
3.020000	1091.816193	1562.458771
3.021000	1085.617477	1552.101440
3.022000	1081.165833	1544.456329
3.023000	1076.398605	1536.490692
3.024000	1070.518105	1529.478180
3.025000	1064.318184	1524.697754
3.026000	1059.867371	1518.960846
3.027000	1053.828239	1515.452332
3.028000	1048.106529	1511.624969
3.029000	1043.338974	1510.195435
3.030000	1036.979965	1509.711273
3.031000	1031.259239	1507.317352
3.032000	1025.057213	1506.844696
3.033000	1020.131027	1507.319031
3.034000	1015.838829	1508.115631
3.035000	1010.277016	1509.382294
3.036000	1003.917671	1511.770996
3.037000	1000.101158	1513.368622
3.038000	994.378586	1516.711731
3.039000	990.565048	1519.103058
3.040000	985.478622	1521.813141
3.041000	981.663750	1525.158844
3.042000	975.782242	1529.779785
3.043000	973.399216	1533.446136
3.044000	967.357101	1536.786957
3.045000	963.223656	1542.053070
3.046000	959.250175	1546.510590
3.047000	954.163063	1551.778534
3.048000	949.552979	1556.079071
3.049000	946.373581	1563.090912
3.050000	942.083649	1568.348145
3.051000	937.312157	1574.254761
3.052000	933.815994	1579.193634
3.053000	929.841026	1583.180969
3.054000	925.072128	1589.237091
3.055000	922.368088	1595.619354
3.056000	917.280991	1599.284302
3.057000	913.306145	1605.026245
3.058000	907.744995	1609.959229
3.059000	903.929459	1614.903290
3.060000	900.432823	1620.326508
3.061000	896.458534	1625.431976
3.062000	891.372932	1629.731079
3.063000	886.920113	1634.360260
3.064000	883.264343	1640.572418
3.065000	879.131233	1644.240936
3.066000	876.430008	1650.925842
3.067000	871.660774	1656.030304
3.068000	867.368095	1660.809570
3.069000	863.713486	1663.512115
3.070000	860.692696	1668.775909
3.071000	855.764526	1674.037292
3.072000	851.788223	1678.499023
3.073000	848.447723	1681.684296
3.074000	845.111168	1688.382050
3.075000	840.978409	1692.366058
3.076000	837.480431	1696.340179
3.077000	833.345871	1699.372375
3.078000	830.167442	1703.512970
3.079000	825.874245	1707.332336
3.080000	822.058701	1708.769897
3.081000	818.402451	1710.040771
3.082000	813.950478	1712.269348
3.083000	810.135925	1714.505310
3.084000	807.114281	1714.823669
3.085000	801.867912	1715.933472
3.086000	798.850769	1715.772491
3.087000	795.035706	1714.811951
3.088000	790.264854	1713.538605
3.089000	788.199532	1711.305786
3.090000	785.498642	1709.869659
3.091000	781.683426	1708.593170
3.092000	777.231628	1705.568726
3.093000	774.371567	1703.013245
3.094000	770.877075	1699.344635
3.095000	767.537224	1695.840607
3.096000	765.313469	1692.488556
3.097000	762.451118	1688.823944
3.098000	757.522781	1684.200134
3.099000	755.298042	1679.739441
3.100000	751.642952	1676.381165
3.101000	749.894867	1671.598602
3.102000	746.715286	1665.703186
3.103000	744.331436	1661.078857
3.104000	740.517387	1654.542358
3.105000	735.905121	1649.430237
3.106000	733.841141	1643.539185
3.107000	729.708572	1637.473969
3.108000	727.004837	1631.731506
3.109000	722.395706	1626.309326
3.110000	719.852257	1619.765778
3.111000	714.922943	1612.121490
3.112000	712.224167	1604.939148
3.113000	707.453979	1598.400726
3.114000	702.364700	1591.230255
3.115000	700.458172	1583.248352
3.116000	695.848576	1575.280487
3.117000	692.827591	1567.142792
3.118000	687.743481	1560.284882
3.119000	684.087578	1551.838867
3.120000	681.065590	1543.702209
3.121000	675.024166	1535.408600
3.122000	672.161312	1526.800476
3.123000	669.143154	1518.349762
3.124000	665.328793	1511.012512
3.125000	661.833126	1503.353821
3.126000	658.017113	1494.750031
3.127000	654.838848	1487.728333
3.128000	650.705738	1479.601868
3.129000	647.683956	1473.702850
3.130000	645.459373	1465.566833
3.131000	642.282078	1457.436707
3.132000	640.374905	1449.787415
3.133000	635.446259	1443.080536
3.134000	633.059586	1435.108704
3.135000	631.629745	1427.612671
3.136000	630.518421	1420.753540
3.137000	626.860363	1414.539642
3.138000	626.066792	1407.998260
3.139000	622.886051	1401.301147
3.140000	621.138638	1395.241486
3.141000	617.959225	1387.898529
3.142000	614.778816	1380.563614
3.143000	613.348305	1373.704544
3.144000	611.438129	1367.966263
3.145000	609.690536	1361.430939
3.146000	605.877151	1355.843414
3.147000	602.855862	1349.466202
3.148000	600.472355	1344.212814
3.149000	595.385406	1337.827209
3.150000	594.431728	1331.608475
3.151000	589.187481	1326.348862
3.152000	586.961735	1321.091797
3.153000	582.985771	1316.145233
3.154000	578.218727	1310.567444
3.155000	576.788223	1306.740372
3.156000	572.974495	1302.750473
3.157000	569.953857	1298.284103
3.158000	567.571476	1294.453537
3.159000	562.803947	1289.995529
3.160000	559.781647	1286.321884
3.161000	556.443275	1282.982346
3.162000	553.427288	1279.309189
3.163000	550.565083	1276.919159
3.164000	546.272877	1274.211578
3.165000	543.094925	1271.179581
3.166000	540.073486	1267.668869
3.167000	538.007175	1266.555588
3.168000	533.876221	1263.211578
3.169000	530.696987	1260.814331
3.170000	527.837429	1258.896774
3.171000	524.974087	1257.950790
3.172000	522.592388	1256.511246
3.173000	520.047596	1255.080582
3.174000	517.821854	1254.598892
3.175000	515.277393	1253.005585
3.176000	513.212925	1252.530273
3.177000	509.872240	1251.733871
3.178000	508.283777	1251.732193
3.179000	506.855726	1252.372833
3.180000	504.152666	1252.843811
3.181000	500.498693	1251.091385
3.182000	499.383127	1251.726852
3.183000	496.840635	1253.325485
3.184000	492.706545	1251.891281
3.185000	492.708708	1252.212036
3.186000	488.893013	1252.373138
3.187000	486.985817	1253.651566
3.188000	484.919336	1253.813675
3.189000	482.376057	1254.128082
3.190000	479.037521	1255.564285
3.191000	476.333788	1255.249207
3.192000	473.472916	1257.804230
3.193000	472.201330	1257.796356
3.194000	468.706526	1258.125290
3.195000	465.840849	1262.113342
3.196000	464.254860	1260.841446
3.197000	461.711414	1262.908081
3.198000	457.577145	1263.230972
3.199000	455.353075	1265.941910
3.200000	452.172991	1268.176697
3.201000	451.062677	1270.573608
3.202000	448.043863	1273.121765
3.203000	444.546888	1273.919846
3.204000	442.958742	1275.683594
3.205000	440.732836	1278.079666
3.206000	437.872461	1279.033173
3.207000	436.920111	1282.385086
3.208000	433.262526	1284.615509
3.209000	431.358988	1285.889420
3.210000	429.768362	1288.607727
3.211000	427.543953	1289.885986
3.212000	426.749718	1292.280716
3.213000	424.206913	1292.923355
3.214000	421.985310	1294.516830
3.215000	418.804221	1296.751587
3.216000	419.918999	1298.185623
3.217000	417.057977	1299.304749
3.218000	414.833553	1302.333267
3.219000	413.243099	1303.771133
3.220000	411.657609	1304.569016
3.221000	410.385383	1306.805008
3.222000	408.477527	1307.445267
3.223000	407.206619	1308.881805
3.224000	403.713605	1311.272522
3.225000	401.486038	1312.711746
3.226000	400.056031	1313.509155
3.227000	398.152145	1313.669617
3.228000	396.084699	1315.894485
3.229000	393.702652	1316.062317
3.230000	391.318463	1317.336227
3.231000	390.046724	1318.775253
3.232000	389.411272	1319.099365
3.233000	386.231862	1319.251938
3.234000	385.122873	1321.968216
3.235000	382.900263	1321.007187
3.236000	381.626710	1322.442245
3.237000	379.561409	1322.444229
3.238000	378.451433	1322.442566
3.239000	376.860157	1321.328278
3.240000	374.477941	1322.919037
3.241000	373.524106	1322.124695
3.242000	370.664885	1321.010025
3.243000	370.031259	1323.080673
3.244000	368.282018	1322.605179
3.245000	365.580927	1323.556000
3.246000	364.470291	1322.602005
3.247000	362.242229	1322.595795
3.248000	362.245882	1323.075821
3.249000	360.655087	1322.919037
3.250000	358.591943	1322.753082
3.251000	358.430835	1321.322067
3.252000	356.368511	1321.636780
3.253000	354.141764	1320.676727
3.254000	353.667087	1320.512756
3.255000	351.281400	1318.119919
3.256000	350.965667	1319.078247
3.257000	348.422866	1318.438278
3.258000	347.308917	1316.997574
3.259000	346.356063	1315.724304
3.260000	343.652484	1315.081528
3.261000	342.381754	1313.328125
3.262000	339.997064	1313.647507
3.263000	338.408261	1311.250244
3.264000	337.456246	1310.457184
3.265000	335.230673	1309.814224
3.266000	333.797167	1308.859055
3.267000	331.572419	1308.529938
3.268000	329.665734	1307.415344
3.269000	329.187730	1306.459656
3.270000	327.121593	1306.296524
3.271000	324.577306	1304.223709
3.272000	322.512166	1303.582077
3.273000	321.873734	1303.423615
3.274000	320.444042	1301.984543
3.275000	319.490544	1300.227478
3.276000	315.991574	1300.868423
3.277000	316.150349	1297.038025
3.278000	314.718513	1295.919861
3.279000	313.607044	1294.164108
3.280000	313.448272	1293.516769
3.281000	311.061433	1291.446808
3.282000	308.993807	1289.535797
3.283000	308.358852	1287.781693
3.284000	308.516634	1287.305679
3.285000	306.607800	1282.677887
3.286000	305.973340	1282.358627
3.287000	305.495666	1279.651367
3.288000	305.653792	1279.012085
3.289000	304.063497	1276.618515
3.290000	304.062662	1272.951904
3.291000	303.427049	1273.266953
3.292000	302.792920	1270.401947
3.293000	302.951376	1269.759460
3.294000	302.636133	1266.258133
3.295000	302.953030	1264.502853
3.296000	301.999009	1262.904724
3.297000	301.839745	1261.162155
3.298000	301.840221	1259.242462
3.299000	301.999508	1257.964371
3.300000	301.521346	1255.738297
3.301000	303.273553	1253.509048
3.302000	304.544467	1251.589493
3.303000	304.226894	1249.363602
3.304000	302.796713	1247.929565
3.305000	303.434810	1246.815948
3.306000	305.023940	1244.585678
3.307000	303.278509	1244.109680
3.308000	304.549757	1240.924957
3.309000	305.505752	1241.075821
3.310000	305.026924	1238.849762
3.311000	305.346956	1236.302475
3.312000	306.460902	1233.907425
3.313000	305.667993	1233.271133
3.314000	306.938409	1232.307587
3.315000	307.895219	1229.609375
3.316000	308.690782	1228.656860
3.317000	309.327224	1225.627213
3.318000	309.327727	1223.714523
3.319000	311.236241	1222.920975
3.320000	311.555945	1221.641174
3.321000	312.986958	1219.407944
3.322000	313.307831	1219.742554
3.323000	313.308155	1216.545761
3.324000	315.852617	1214.318512
3.325000	315.851289	1212.878967
3.326000	317.605002	1212.564606
3.327000	317.443738	1212.885803
3.328000	318.400391	1209.854996
3.329000	318.239282	1207.466309
3.330000	318.877397	1206.666199
3.331000	319.673937	1205.233551
3.332000	321.743722	1205.398331
3.333000	321.264398	1201.721497
3.334000	321.741066	1202.686386
3.335000	323.014950	1200.937988
3.336000	323.491294	1201.090408
3.337000	323.970119	1199.498611
3.338000	325.083400	1199.180389
3.339000	325.400630	1197.903137
3.340000	327.148873	1197.588440
3.341000	327.627032	1196.630905
3.342000	329.215497	1194.716400
3.343000	328.898263	1194.233185
3.344000	328.899100	1193.127960
3.345000	330.964734	1192.971176
3.346000	331.918742	1192.007462
3.347000	333.189313	1190.259384
3.348000	333.825426	1189.300705
3.349000	335.416537	1188.505142
3.350000	336.527346	1188.667786
3.351000	336.687110	1186.759903
3.352000	338.914018	1187.072601
3.353000	339.709575	1185.798889
3.354000	341.296387	1184.845551
3.355000	343.362861	1185.166107
3.356000	343.679756	1184.045151
3.357000	343.998148	1183.412369
3.358000	346.060472	1182.456192
3.359000	347.493305	1181.976501
3.360000	348.764382	1179.108963
3.361000	350.034622	1179.910385
3.362000	348.760738	1177.996338
3.363000	350.986639	1176.883072
3.364000	351.145919	1176.885895
3.365000	354.481638	1175.926880
3.366000	353.526641	1172.898224
3.367000	355.117422	1172.581680
3.368000	356.862855	1170.195160
3.369000	356.384851	1168.281952
3.370000	357.813550	1167.008743
3.371000	359.087104	1166.851974
3.372000	359.879180	1164.460754
3.373000	361.151745	1163.024200
3.374000	360.672431	1159.837784
3.375000	362.102614	1158.406754
3.376000	362.736901	1155.856140
3.377000	364.006825	1153.949646
3.378000	364.961825	1152.673538
3.379000	366.711051	1150.764191
3.380000	367.183436	1149.018311
3.381000	367.820533	1144.234756
3.382000	369.887168	1144.073593
3.383000	370.677262	1141.846207
3.384000	370.519971	1138.656418
3.385000	374.174577	1136.591980
3.386000	374.493459	1133.879364
3.387000	375.129243	1131.490829
3.388000	378.625073	1128.786102
3.389000	378.307319	1126.718307
3.390000	380.531410	1125.122330
3.391000	382.598372	1122.417267
3.392000	384.028565	1119.704636
3.393000	386.094356	1115.881256
3.394000	387.365599	1116.204330
3.395000	389.751630	1113.015381
3.396000	391.498044	1108.878494
3.397000	394.200123	1106.329315
3.398000	397.219102	1103.942444
3.399000	400.715767	1102.509476
3.400000	402.147413	1100.277023
3.401000	404.214387	1097.888138
3.402000	406.120255	1095.181900
3.403000	408.345507	1091.678757
3.404000	412.161866	1090.085632
3.405000	415.816286	1088.968842
3.406000	417.402945	1084.191605
3.407000	421.060845	1081.488693
3.408000	421.535537	1079.255951
3.409000	426.305581	1077.665344
3.410000	429.960329	1074.321121
3.411000	431.706090	1073.201828
3.412000	435.205072	1071.137863
3.413000	438.700395	1067.632553
3.414000	442.514422	1064.768860
3.415000	445.375792	1063.337372
3.416000	449.506082	1060.950180
3.417000	451.571704	1059.993469
3.418000	455.067376	1056.807892
3.419000	458.882580	1055.377716
3.420000	463.014838	1052.515366
3.421000	466.031669	1050.599838
3.422000	469.370048	1049.495926
3.423000	473.342034	1046.944778
3.424000	476.839848	1045.826935
3.425000	483.356287	1043.917633
3.426000	485.578557	1042.167725
3.427000	489.549394	1040.574768
3.428000	494.161838	1039.298828
3.429000	499.880895	1038.190247
3.430000	503.851399	1034.214951
3.431000	507.824239	1035.331375
3.432000	512.273067	1033.420746
3.433000	515.767404	1032.627335
3.434000	522.124104	1029.603180
3.435000	525.938313	1028.650192
3.436000	530.068918	1027.698547
3.437000	534.833165	1027.066956
3.438000	539.761320	1025.317902
3.439000	545.163822	1023.244080
3.440000	549.772762	1023.249756
3.441000	554.377083	1022.613983
3.442000	558.352890	1022.145721
3.443000	564.231726	1021.351654
3.444000	568.997310	1019.436951
3.445000	574.559596	1019.451172
3.446000	579.007274	1019.614304
3.447000	584.569875	1019.137833
3.448000	589.975705	1017.225464
3.449000	594.739144	1018.029541
3.450000	599.823754	1016.761871
3.451000	603.478172	1017.882309
3.452000	611.107413	1016.293381
3.453000	614.443806	1015.979523
3.454000	621.434933	1012.956894
3.455000	626.996902	1015.035751
3.456000	633.033884	1013.764511
3.457000	637.644964	1012.814865
3.458000	643.363056	1011.388046
3.459000	648.926842	1010.593826
3.460000	654.170397	1009.170532
3.461000	660.367975	1010.765198
3.462000	665.293829	1008.863525
3.463000	670.695683	1007.107117
3.464000	675.940077	1008.398270
3.465000	683.090641	1005.854324
3.466000	687.700590	1005.860840
3.467000	692.626251	1004.752090
3.468000	697.231548	1003.155945
3.469000	703.908789	1002.052383
3.470000	708.199013	1001.743683
3.471000	714.874582	1000.152237
3.472000	719.482531	999.202927
3.473000	724.248568	999.361221
3.474000	728.222734	998.091507
3.475000	735.533411	997.624039
3.476000	738.550417	995.875641
3.477000	744.113533	996.511108
3.478000	748.243490	994.447174
3.479000	754.602827	995.406860
3.480000	758.892202	996.529526
3.481000	762.071630	994.299133
3.482000	765.406853	994.945084
3.483000	768.585594	993.983917
3.484000	772.399160	993.516785
3.485000	776.212523	991.922958
3.486000	781.297010	991.773407
3.487000	783.837336	992.404327
3.488000	786.220671	991.291534
3.489000	788.923101	991.933350
3.490000	792.576048	990.820053
3.491000	795.276491	990.507019
3.492000	797.976440	990.822937
3.493000	801.154684	990.987564
3.494000	803.699316	988.919113
3.495000	805.126205	989.709473
3.496000	807.031071	989.876465
3.497000	807.348616	989.555069
3.498000	811.003206	987.966446
3.499000	812.908745	988.128403
3.500000	813.065708	988.129745
3.501000	816.403255	985.892609
3.502000	816.559227	987.013947
3.503000	818.146193	986.063095
3.504000	819.892632	985.104111
3.505000	821.003443	984.788071
3.506000	821.953650	982.081619
3.507000	822.910278	981.597778
3.508000	824.969830	980.809738
3.509000	823.539288	979.208069
3.510000	824.649092	977.137589
3.511000	825.761396	976.341187
3.512000	826.871216	974.436371
3.513000	826.869375	972.524338
3.514000	828.299765	971.087463
3.515000	828.454710	968.701950
3.516000	828.295767	966.150986
3.517000	828.771128	967.267609
3.518000	827.974588	962.330597
3.519000	829.562365	959.621140
3.520000	827.177374	957.230484
3.521000	828.923294	954.688339
3.522000	828.762705	951.501404
3.523000	826.853662	949.591721
3.524000	826.535959	945.928482
3.525000	824.943996	942.576218
3.526000	825.737942	940.031067
3.527000	823.669958	936.054108
3.528000	823.512518	934.460953
3.529000	822.079044	930.633240
3.530000	820.808943	929.838501
3.531000	820.967077	927.446960
3.532000	818.897467	923.462280
3.533000	818.579752	921.232712
3.534000	817.309637	920.762085
3.535000	815.242680	916.774216
3.536000	814.289352	916.461182
3.537000	813.178026	912.154938
3.538000	809.679766	912.156265
3.539000	808.886675	911.045013
3.540000	807.134947	911.686996
3.541000	805.706610	910.413574
3.542000	803.644255	909.620697
3.543000	802.053141	909.305313
3.544000	799.987696	910.107086
3.545000	798.239763	910.272385
3.546000	796.016983	911.242462
3.547000	794.907007	912.200821
3.548000	791.570482	912.368958
3.549000	790.777910	914.767548
3.550000	788.871552	916.052185
3.551000	787.604620	917.171143
3.552000	784.745377	919.566559
3.553000	783.318846	920.693588
3.554000	780.616909	921.818573
3.555000	778.236216	923.099701
3.556000	776.968271	925.974762
3.557000	774.585735	927.255539
3.558000	770.456434	929.813904
3.559000	769.344961	929.665161
3.560000	768.714632	930.785980
3.561000	765.218967	932.547104
3.562000	762.520227	933.831741
3.563000	761.250971	935.115524
3.564000	759.506035	935.762512
3.565000	757.921682	936.722885
3.566000	756.492506	938.486877
3.567000	752.680935	936.581543
3.568000	751.571457	939.131516
3.569000	748.871338	939.943665
3.570000	748.557261	939.953354
3.571000	746.811657	939.961761
3.572000	743.954443	938.848618
3.573000	744.274176	938.853333
3.574000	741.256994	939.341049
3.575000	740.306452	939.187286
3.576000	739.038366	937.753098
3.577000	737.928877	937.767166
3.578000	736.344225	935.538803
3.579000	734.756245	934.268066
3.580000	732.689770	933.637970
3.581000	731.741577	930.772446
3.582000	730.311705	929.025375
3.583000	729.203878	927.434097
3.584000	727.140396	924.252350
3.585000	725.075891	923.143768
3.586000	725.237829	920.435333
3.587000	722.857265	916.135620
3.588000	722.224472	914.550522
3.589000	721.908230	910.408752
3.590000	719.368721	908.184860
3.591000	718.417025	903.403442
3.592000	718.897676	901.343521
3.593000	716.673925	898.310852
3.594000	716.039480	893.847000
3.595000	715.407492	890.030975
3.596000	715.251362	886.363693
3.597000	713.823969	881.113632
3.598000	712.397074	877.605301
3.599000	711.445385	872.664444
3.600000	710.971884	867.729294
3.601000	707.636663	863.908081
3.602000	708.593470	857.851257
3.603000	707.643606	853.549698
3.604000	706.215235	848.135193
3.605000	705.898991	842.236145
3.606000	706.064556	837.775131
3.607000	704.954405	832.841660
3.608000	704.162634	826.623032
3.609000	703.052845	821.529434
3.610000	702.895700	815.779449
3.611000	701.947319	810.842438
3.612000	701.790701	806.065216
3.613000	699.410151	798.894119
3.614000	699.098715	793.634033
3.615000	698.622530	788.209808
3.616000	699.420567	781.999237
3.617000	697.675312	774.828125
3.618000	696.566967	771.318771
3.619000	696.731209	764.144485
3.620000	696.736328	758.719757
3.621000	696.260475	752.507370
3.622000	695.470375	746.606644
3.623000	693.884735	741.034180
3.624000	692.933704	733.373688
3.625000	693.256870	728.913849
3.626000	692.307663	723.014465
3.627000	693.264503	717.271179
3.628000	691.678974	712.333496
3.629000	691.842220	705.325348
3.630000	691.369205	700.693176
3.631000	691.373314	693.361282
3.632000	690.422451	686.508224
3.633000	690.746307	681.085678
3.634000	690.274117	676.309799
3.635000	688.369736	671.043015
3.636000	690.600269	663.554016
3.637000	688.218689	659.565475
3.638000	686.953266	653.351410
3.639000	687.434574	646.967316
3.640000	686.011147	642.353882
3.641000	684.266552	636.448990
3.642000	683.794514	630.552963
3.643000	682.527252	624.489456
3.644000	683.010685	619.073593
3.645000	681.426369	614.609055
3.646000	681.269405	608.876846
3.647000	678.890167	603.300522
3.648000	678.416142	598.192871
3.649000	678.740147	592.767288
3.650000	676.837444	588.466400
3.651000	678.430195	583.690018
3.652000	677.163918	577.464874
3.653000	676.053452	573.807800
3.654000	675.739002	568.541016
3.655000	675.903099	564.400589
3.656000	675.746136	558.504555
3.657000	673.046684	554.357758
3.658000	672.256573	549.256950
3.659000	672.896355	545.269928
3.660000	673.056934	541.925873
3.661000	670.836155	538.259438
3.662000	670.838303	533.634460
3.663000	668.934265	529.486320
3.664000	668.936234	524.392220
3.665000	668.464025	522.002342
3.666000	667.192125	516.899353
3.667000	667.674585	513.076820
3.668000	666.880682	510.208427
3.669000	665.452482	506.861053
3.670000	663.866346	502.245773
3.671000	663.551584	499.688431
3.672000	663.872129	495.542305
3.673000	662.919458	492.995667
3.674000	661.648691	487.421356
3.675000	660.383732	484.862175
3.676000	660.543339	480.883865
3.677000	658.162302	478.490479
3.678000	658.958021	475.462822
3.679000	657.211756	472.756409
3.680000	655.307884	469.724060
3.681000	654.514473	465.905022
3.682000	654.832853	464.624596
3.683000	653.406828	461.757896
3.684000	652.931456	459.054153
3.685000	651.343163	456.339874
3.686000	649.914978	453.799423
3.687000	648.804819	451.877869
3.688000	647.694353	450.125450
3.689000	646.425093	447.741768
3.690000	644.519224	445.191124
3.691000	644.044559	443.278595
3.692000	643.410730	442.005188
3.693000	641.665480	440.410049
3.694000	640.236776	438.182144
3.695000	637.855089	436.113510
3.696000	634.997038	434.677643
3.697000	633.568163	434.356575
3.698000	633.570810	433.241623
3.699000	632.462332	430.695816
3.700000	629.127760	430.694633
3.701000	627.064278	429.264320
3.702000	624.842348	427.346596
3.703000	622.619087	428.466400
3.704000	622.304012	427.991074
3.705000	621.827646	426.241844
3.706000	622.143896	426.717506
3.707000	623.100393	426.559738
3.708000	623.098738	424.485413
3.709000	623.416456	425.761497
3.710000	622.302666	425.284325
3.711000	624.212843	426.559227
3.712000	625.325945	424.174881
3.713000	625.485083	426.566940
3.714000	626.438410	424.805153
3.715000	625.961252	426.248383
3.716000	626.439070	425.445786
3.717000	627.552038	426.245369
3.718000	628.982531	428.158562
3.719000	627.233797	428.320854
3.720000	630.415867	428.633560
3.721000	630.094496	429.913651
3.722000	630.731773	430.556305
3.723000	629.777765	431.349525
3.724000	630.255093	432.463989
3.725000	631.207283	433.103447
3.726000	631.687424	435.657112
3.727000	633.115644	435.497833
3.728000	633.275236	438.207428
3.729000	632.800547	438.039948
3.730000	633.593645	440.756401
3.731000	632.798061	442.512840
3.732000	633.435514	444.904564
3.733000	633.434505	447.774437
3.734000	633.593311	448.261650
3.735000	633.754885	451.441055
3.736000	634.706402	453.674995
3.737000	635.820856	454.471733
3.738000	633.912006	458.137177
3.739000	635.026627	460.850967
3.740000	635.977810	463.560562
3.741000	635.820534	468.970894
3.742000	635.027134	474.392776
3.743000	635.185902	481.409126
3.744000	634.070963	486.994804
3.745000	635.821039	486.987953
3.746000	634.389357	489.854324
3.747000	634.389677	497.030296
3.748000	633.119118	504.206924
3.749000	634.232069	509.468521
3.750000	635.026453	514.722763
3.751000	634.709885	521.418533
3.752000	633.434677	528.107140
3.753000	631.688095	534.492905
3.754000	633.276396	538.475067
3.755000	632.640453	542.618027
3.756000	632.957352	550.591728
3.757000	633.911345	556.170563
3.758000	632.322071	563.185570
3.759000	631.845377	568.926842
3.760000	631.049185	574.192963
3.761000	630.890049	581.840912
3.762000	631.210270	588.532684
3.763000	630.254780	591.725159
3.764000	630.414358	598.579887
3.765000	630.891859	605.440620
3.766000	631.366245	610.696533
3.767000	629.936527	617.395653
3.768000	628.823589	623.780609
3.769000	628.505859	628.561523
3.770000	628.822937	635.734985
3.771000	629.778582	641.153687
3.772000	627.072699	649.766846
3.773000	626.437576	655.828873
3.774000	627.075195	662.522980
3.775000	626.914257	669.709503
3.776000	627.234787	681.518326
3.777000	626.117704	692.848297
3.778000	627.073019	700.835556
3.779000	626.278950	707.048981
3.780000	625.643673	712.162186
3.781000	624.530891	723.327011
3.782000	625.325462	733.387070
3.783000	625.165670	743.599579
3.784000	624.848104	752.694275
3.785000	625.166515	761.480637
3.786000	625.007055	772.812592
3.787000	624.688179	785.270416
3.788000	625.482912	794.369965
3.789000	625.167500	804.747437
3.790000	624.053562	811.932770
3.791000	624.847446	821.511169
3.792000	625.645325	834.447006
3.793000	625.482750	846.571198
3.794000	625.165337	855.201462
3.795000	624.213993	865.746933
3.796000	626.438751	876.124741
3.797000	624.372101	886.820267
3.798000	625.326281	895.923630
3.799000	625.801781	907.426102
3.800000	625.483742	918.278946
3.801000	626.440712	928.181885
3.802000	626.120173	938.240631
3.803000	625.804598	946.860855
3.804000	626.122320	955.808640
3.805000	627.392750	966.184769
3.806000	627.553507	976.084549
3.807000	626.917393	985.186966
3.808000	627.075169	993.643021
3.809000	628.028532	1002.111130
3.810000	626.916727	1010.732651
3.811000	628.826221	1018.557816
3.812000	629.617832	1027.176361
3.813000	629.143627	1034.517960
3.814000	628.986492	1042.019699
3.815000	629.781061	1049.528427
3.816000	630.414040	1055.915710
3.817000	630.097645	1061.984543
3.818000	630.893019	1068.688553
3.819000	631.848354	1074.114090
3.820000	631.368690	1081.294403
3.821000	631.210077	1084.963745
3.822000	629.940018	1089.920486
3.823000	631.368544	1094.707230
3.824000	631.210106	1099.184631
3.825000	632.005308	1103.490768
3.826000	632.802040	1106.844147
3.827000	631.686937	1111.795547
3.828000	632.800367	1114.664261
3.829000	633.120926	1116.103485
3.830000	632.640759	1121.842224
3.831000	632.162941	1123.605713
3.832000	632.800049	1124.564545
3.833000	632.323214	1128.385925
3.834000	630.892876	1128.871277
3.835000	633.276558	1132.219833
3.836000	632.163101	1131.902298
3.837000	631.689245	1134.610413
3.838000	632.958649	1134.607712
3.839000	631.208752	1136.524078
3.840000	630.891880	1136.204193
3.841000	630.731770	1137.629501
3.842000	631.527319	1137.633011
3.843000	630.255407	1139.066040
3.844000	630.413374	1136.990509
3.845000	630.414028	1137.302200
3.846000	629.301908	1135.548462
3.847000	628.504864	1136.503296
3.848000	629.459354	1134.102036
3.849000	627.234112	1132.827484
3.850000	628.027695	1129.638535
3.851000	627.708982	1130.268433
3.852000	626.438065	1128.031326
3.853000	626.758120	1125.637421
3.854000	627.073851	1122.764343
3.855000	625.959087	1120.683838
3.856000	625.959419	1119.403885
3.857000	623.575058	1116.689957
3.858000	623.576050	1112.381180
3.859000	623.095400	1111.731323
3.860000	622.778517	1108.229340
3.861000	622.302671	1105.985550
3.862000	623.098225	1103.591644
3.863000	622.142738	1098.639893
3.864000	620.552427	1096.880783
3.865000	621.348658	1092.883545
3.866000	619.915323	1089.845673
3.867000	619.120594	1086.334991
3.868000	618.961979	1083.780991
3.869000	617.373861	1079.946716
3.870000	616.734928	1075.955856
3.871000	617.053291	1073.562958
3.872000	615.781570	1068.446426
3.873000	615.939034	1065.572510
3.874000	615.304752	1061.102478
3.875000	614.667646	1057.904144
3.876000	614.667128	1054.710190
3.877000	613.552183	1051.357071
3.878000	611.485054	1046.252441
3.879000	613.552691	1043.690201
3.880000	612.280289	1038.904602
3.881000	612.281616	1034.908203
3.882000	612.598846	1031.873703
3.883000	611.485897	1027.884308
3.884000	611.644341	1021.977097
3.885000	611.483927	1018.776932
3.886000	611.326307	1015.428696
3.887000	610.531559	1012.231369
3.888000	611.325314	1006.009552
3.889000	609.257664	1003.131836
3.890000	609.577543	999.141098
3.891000	608.623047	995.307159
3.892000	608.144711	991.323318
3.893000	606.873001	987.486557
3.894000	608.461454	984.288757
3.895000	609.256531	980.617584
3.896000	609.417793	976.630386
3.897000	606.551630	974.548920
3.898000	607.826336	970.085709
3.899000	608.303675	966.882339
3.900000	607.983784	962.412796
3.901000	607.348522	959.691666
3.902000	607.506283	956.186172
3.903000	607.186403	950.920837
3.904000	608.140930	948.364670
3.905000	607.507624	944.848129
3.906000	607.346188	941.492706
3.907000	607.984962	938.147018
3.908000	607.507278	935.269745
3.909000	608.618576	931.437805
3.910000	608.620560	928.240341
3.911000	607.825184	925.695038
3.912000	607.506298	921.226501
3.913000	607.982965	917.553497
3.914000	610.208378	915.160965
3.915000	608.778700	911.171417
3.916000	609.894304	909.410980
3.917000	610.686525	906.380157
3.918000	610.845486	904.305145
3.919000	611.481598	902.220642
3.920000	611.641869	897.760788
3.921000	613.071388	895.367401
3.922000	611.958921	895.845901
3.923000	613.070889	892.012802
3.924000	613.072868	890.735565
3.925000	614.343941	887.709930
3.926000	614.503387	885.946457
3.927000	614.663816	883.707306
3.928000	615.935068	882.269302
3.929000	617.367407	881.471207
3.930000	617.208128	880.994843
3.931000	616.729122	880.350250
3.932000	618.160971	878.283783
3.933000	619.752087	877.478348
3.934000	620.069485	875.567291
3.935000	621.026449	873.011978
3.936000	621.976498	872.375504
3.937000	624.203558	873.654785
3.938000	623.409817	871.575958
3.939000	623.568781	871.096069
3.940000	623.888319	872.050949
3.941000	624.362846	869.977615
3.942000	624.045265	870.456451
3.943000	625.318157	870.930298
3.944000	626.113403	870.295685
3.945000	626.907646	869.495102
3.946000	627.068388	870.450775
3.947000	628.340458	869.815170
3.948000	628.977066	868.219849
3.949000	627.226856	871.091904
3.950000	628.340630	871.247025
3.951000	628.181337	870.769852
3.952000	628.340612	869.658401
3.953000	629.453579	871.571259
3.954000	628.339966	872.689072
3.955000	628.020733	872.689728
3.956000	628.659029	873.962631
3.957000	627.068905	873.324203
3.958000	628.180344	875.561646
3.959000	628.657686	877.317230
3.960000	627.863953	877.154922
3.961000	627.703367	877.159149
3.962000	625.795004	877.791595
3.963000	624.682711	879.070160
3.964000	626.430634	879.874756
3.965000	626.431124	881.620148
3.966000	624.522434	882.895218
3.967000	625.478447	883.696991
3.968000	623.570255	883.214279
3.969000	623.089607	884.811111
3.970000	621.500977	886.568542
3.971000	621.977821	887.851334
3.972000	620.865374	888.483414
3.973000	619.434357	889.454346
3.974000	619.591658	890.723557
3.975000	617.683468	892.477493
3.976000	617.523706	893.436829
3.977000	615.298100	894.070297
3.978000	614.504541	895.824722
3.979000	612.597191	896.946884
3.980000	611.800150	898.220612
3.981000	610.845135	899.341934
3.982000	609.892645	901.409424
3.983000	607.505289	902.851959
3.984000	606.710056	903.330292
3.985000	604.005507	903.494583
3.986000	602.734104	904.770691
3.987000	601.939707	906.042587
3.988000	598.758785	907.958633
3.989000	598.440567	911.628418
3.990000	596.690681	910.989136
3.991000	595.577242	912.274078
3.992000	595.894619	913.388702
3.993000	593.191216	914.185776
3.994000	592.714397	916.738602
3.995000	590.646606	917.379257
3.996000	589.213114	917.377228
3.997000	587.784733	918.502075
3.998000	585.716963	919.293259
3.999000	585.079681	920.096390
